File: ThemeT/BTO_XRD/1,2班XRD/201209_2班XRD.txt
;content of C:\Users\Bruker\AppData\Local\Temp\92fetmp-50337042.raw - (Diffrac Plus V4 file)
_FILEVERSION = 3
_SAMPLE = Commander Sample ID
_+SAMPLE
_USER = Lab Manager
_GONIOMETER_CODE = 21
_STAGE_CODE = 4
; Goniometer : D8 theta/theta, stage : Open eulerian craddle
_SAMPLE_CHANGER_CODE = 0
_ATTACHMENTS_CODE = 0
_GONIOMETER_RADIUS = 415
_MONOCHROMATOR = 0
; Incident beam monochromator : None
_BETA_FILTER = N
_ANALYZER_CODE = 0
; Received beam analyzer : None
_DATEMEASURED = 09-Dec-2020 13:42:57
_RUNTIME = 12.36928
_WL_UNIT = A
_WL1 = 1.5406
_WL2 = 1.54439
_WL3 = 1.39222
_WLRATIO = 0.5
_ANODE = Cu
_V4_INF_USER = Lab Manager
_V4_INF_SAMPLEID = Commander Sample ID
_V4_INF_CREATOR = V5Converter
_V4_INF_CREATOR_VERSION = 3.3.47.0
_V4_INF_SUBSTRATE = Si (no database)
_V4_INF_LAYER = Si (no database)

; Data for range 1
_DRIVE = COUPLED
_STEPTIME = 76.8
_STEPSIZE = 0.02026
_STEPMODE = C
_START = 20
_THETA = 9.9639
_2THETA = 20
_KHI = -0.25
_PHI = 0
_X = -10.255
_Y = -0.555
_Z = 0.7095
_DETECTORSLIT = out
_AUX2 = 0
_TIMESTARTED = 0
_KV = 40
_MA = 40
_RANGE_WL = 1.5406
_3DPLANE = 0
_V4_PSD2THETA = 9999
_V4_PSDCHANNEL1 = 0
_V4_PSDAPERTURE = 2.083855
_V4_PSDTYPE = 5
_V4_PSDFIXED = 0
_V4_COUNTERS_MASK = 1
_V4_DRIVES_MASK = 0
_V4_ENCODERS_MASK = 0
_2THETACOUNTS = 1
; 2THETA	Cnt2_D1
20	26
20.0405	24
20.081	31
20.1216	25
20.1621	19
20.2026	20
20.2431	20
20.2836	24
20.3242	31
20.3647	16
20.4052	21
20.4457	24
20.4862	16
20.5268	14
20.5673	25
20.6078	17
20.6483	18
20.6888	21
20.7293	15
20.7699	26
20.8104	25
20.8509	19
20.8914	24
20.9319	13
20.9725	21
21.013	17
21.0535	17
21.094	19
21.1345	21
21.1751	25
21.2156	23
21.2561	23
21.2966	17
21.3371	16
21.3777	27
21.4182	30
21.4587	17
21.4992	16
21.5397	18
21.5803	24
21.6208	23
21.6613	21
21.7018	13
21.7423	21
21.7829	19
21.8234	19
21.8639	22
21.9044	16
21.9449	21
21.9855	19
22.026	16
22.0665	19
22.107	31
22.1475	12
22.188	21
22.2286	24
22.2691	13
22.3096	22
22.3501	20
22.3906	19
22.4312	20
22.4717	17
22.5122	25
22.5527	23
22.5932	23
22.6338	13
22.6743	31
22.7148	17
22.7553	19
22.7958	18
22.8364	20
22.8769	20
22.9174	19
22.9579	8.000000
22.9984	12
23.039	19
23.0795	10
23.12	22
23.1605	16
23.201	19
23.2416	18
23.2821	23
23.3226	18
23.3631	13
23.4036	16
23.4441	16
23.4847	24
23.5252	21
23.5657	12
23.6062	13
23.6467	16
23.6873	23
23.7278	14
23.7683	26
23.8088	16
23.8493	16
23.8899	10
23.9304	25
23.9709	16
24.0114	16
24.0519	18
24.0925	21
24.133	16
24.1735	22
24.214	6.000000
24.2545	16
24.2951	16
24.3356	22
24.3761	18
24.4166	16
24.4571	20
24.4977	18
24.5382	21
24.5787	16
24.6192	11
24.6597	27
24.7003	18
24.7408	17
24.7813	14
24.8218	14
24.8623	23
24.9028	20
24.9434	12
24.9839	12
25.0244	17
25.0649	13
25.1054	15
25.146	15
25.1865	17
25.227	19
25.2675	13
25.308	15
25.3486	14
25.3891	9.000000
25.4296	11
25.4701	13
25.5106	10
25.5512	18
25.5917	17
25.6322	13
25.6727	18
25.7132	15
25.7538	16
25.7943	16
25.8348	15
25.8753	24
25.9158	8.000000
25.9564	19
25.9969	11
26.0374	17
26.0779	20
26.1184	25
26.1589	11
26.1995	19
26.24	10
26.2805	16
26.321	10
26.3615	13
26.4021	19
26.4426	11
26.4831	15
26.5236	14
26.5641	14
26.6047	18
26.6452	14
26.6857	21
26.7262	10
26.7667	13
26.8073	19
26.8478	7.000000
26.8883	17
26.9288	17
26.9693	18
27.0099	22
27.0504	18
27.0909	18
27.1314	10
27.1719	17
27.2125	12
27.253	15
27.2935	12
27.334	21
27.3745	8.000000
27.4151	10
27.4556	12
27.4961	13
27.5366	17
27.5771	15
27.6176	13
27.6582	12
27.6987	17
27.7392	16
27.7797	12
27.8202	17
27.8608	20
27.9013	13
27.9418	11
27.9823	9.000000
28.0228	21
28.0634	12
28.1039	15
28.1444	12
28.1849	21
28.2254	13
28.266	15
28.3065	12
28.347	15
28.3875	11
28.428	12
28.4686	6.000000
28.5091	19
28.5496	15
28.5901	10
28.6306	17
28.6712	12
28.7117	14
28.7522	14
28.7927	9.000000
28.8332	6.000000
28.8737	21
28.9143	10
28.9548	11
28.9953	9.000000
29.0358	13
29.0763	12
29.1169	20
29.1574	14
29.1979	10
29.2384	16
29.2789	18
29.3195	14
29.36	15
29.4005	14
29.441	14
29.4815	21
29.5221	9.000000
29.5626	13
29.6031	15
29.6436	13
29.6841	11
29.7247	11
29.7652	12
29.8057	14
29.8462	12
29.8867	12
29.9273	18
29.9678	17
30.0083	12
30.0488	10
30.0893	18
30.1299	19
30.1704	11
30.2109	6.000000
30.2514	22
30.2919	17
30.3324	13
30.373	26
30.4135	16
30.454	14
30.4945	12
30.535	14
30.5756	22
30.6161	22
30.6566	13
30.6971	23
30.7376	23
30.7782	15
30.8187	23
30.8592	19
30.8997	13
30.9402	22
30.9808	22
31.0213	26
31.0618	26
31.1023	30
31.1428	25
31.1834	32
31.2239	35
31.2644	31
31.3049	41
31.3454	28
31.386	30
31.4265	37
31.467	35
31.5075	29
31.548	33
31.5885	25
31.6291	35
31.6696	38
31.7101	33
31.7506	21
31.7911	21
31.8317	19
31.8722	22
31.9127	8.000000
31.9532	16
31.9937	17
32.0343	20
32.0748	17
32.1153	23
32.1558	16
32.1963	15
32.2369	15
32.2774	8.000000
32.3179	16
32.3584	7.000000
32.3989	9.000000
32.4395	12
32.48	10
32.5205	15
32.561	14
32.6015	10
32.6421	16
32.6826	7.000000
32.7231	12
32.7636	6.000000
32.8041	8.000000
32.8447	11
32.8852	15
32.9257	8.000000
32.9662	8.000000
33.0067	9.000000
33.0472	7.000000
33.0878	11
33.1283	14
33.1688	12
33.2093	11
33.2498	12
33.2904	8.000000
33.3309	7.000000
33.3714	10
33.4119	9.000000
33.4524	12
33.493	10
33.5335	10
33.574	6.000000
33.6145	11
33.655	8.000000
33.6956	8.000000
33.7361	11
33.7766	17
33.8171	5.000000
33.8576	15
33.8982	8.000000
33.9387	11
33.9792	9.000000
34.0197	15
34.0602	9.000000
34.1008	6.000000
34.1413	10
34.1818	4.000000
34.2223	9.000000
34.2628	7.000000
34.3033	16
34.3439	10
34.3844	19
34.4249	10
34.4654	8.000000
34.5059	6.000000
34.5465	6.000000
34.587	12
34.6275	6.000000
34.668	13
34.7085	6.000000
34.7491	7.000000
34.7896	3.000000
34.8301	12
34.8706	5.000000
34.9111	8.000000
34.9517	15
34.9922	6.000000
35.0327	10
35.0732	4.000000
35.1137	9.000000
35.1543	10
35.1948	6.000000
35.2353	6.000000
35.2758	8.000000
35.3163	7.000000
35.3569	9.000000
35.3974	7.000000
35.4379	10
35.4784	8.000000
35.5189	9.000000
35.5595	5.000000
35.6	7.000000
35.6405	9.000000
35.681	6.000000
35.7215	8.000000
35.762	12
35.8026	7.000000
35.8431	7.000000
35.8836	6.000000
35.9241	9.000000
35.9646	9.000000
36.0052	4.000000
36.0457	12
36.0862	9.000000
36.1267	6.000000
36.1672	12
36.2078	9.000000
36.2483	6.000000
36.2888	7.000000
36.3293	9.000000
36.3698	8.000000
36.4104	10
36.4509	11
36.4914	9.000000
36.5319	16
36.5724	9.000000
36.613	14
36.6535	8.000000
36.694	12
36.7345	14
36.775	8.000000
36.8156	13
36.8561	6.000000
36.8966	10
36.9371	8.000000
36.9776	5.000000
37.0181	8.000000
37.0587	13
37.0992	8.000000
37.1397	14
37.1802	12
37.2207	7.000000
37.2613	4.000000
37.3018	5.000000
37.3423	9.000000
37.3828	9.000000
37.4233	7.000000
37.4639	8.000000
37.5044	8.000000
37.5449	14
37.5854	6.000000
37.6259	7.000000
37.6665	16
37.707	12
37.7475	9.000000
37.788	14
37.8285	9.000000
37.8691	10
37.9096	12
37.9501	8.000000
37.9906	8.000000
38.0311	14
38.0717	9.000000
38.1122	18
38.1527	15
38.1932	14
38.2337	14
38.2743	15
38.3148	13
38.3553	13
38.3958	23
38.4363	16
38.4768	24
38.5174	27
38.5579	17
38.5984	25
38.6389	27
38.6794	24
38.72	18
38.7605	32
38.801	22
38.8415	35
38.882	28
38.9226	30
38.9631	28
39.0036	33
39.0441	19
39.0846	34
39.1252	30
39.1657	18
39.2062	26
39.2467	30
39.2872	39
39.3278	45
39.3683	25
39.4088	44
39.4493	52
39.4898	60
39.5304	78
39.5709	94
39.6114	120
39.6519	126
39.6924	228
39.7329	331
39.7735	562
39.814	948
39.8545	1246
39.895	1429
39.9355	1311
39.9761	1053
40.0166	741
40.0571	540
40.0976	325
40.1381	199
40.1787	119
40.2192	95
40.2597	72
40.3002	45
40.3407	55
40.3813	40
40.4218	34
40.4623	39
40.5028	30
40.5433	29
40.5839	25
40.6244	30
40.6649	32
40.7054	18
40.7459	17
40.7865	14
40.827	28
40.8675	21
40.908	18
40.9485	15
40.989	8.000000
41.0296	19
41.0701	12
41.1106	8.000000
41.1511	9.000000
41.1916	12
41.2322	12
41.2727	8.000000
41.3132	12
41.3537	11
41.3942	13
41.4348	8.000000
41.4753	11
41.5158	10
41.5563	11
41.5968	14
41.6374	15
41.6779	11
41.7184	10
41.7589	11
41.7994	16
41.84	11
41.8805	10
41.921	10
41.9615	7.000000
42.002	7.000000
42.0426	4.000000
42.0831	13
42.1236	9.000000
42.1641	10
42.2046	12
42.2452	7.000000
42.2857	12
42.3262	7.000000
42.3667	8.000000
42.4072	2.000000
42.4477	11
42.4883	3.000000
42.5288	3.000000
42.5693	8.000000
42.6098	13
42.6503	7.000000
42.6909	15
42.7314	9.000000
42.7719	9.000000
42.8124	13
42.8529	14
42.8935	5.000000
42.934	9.000000
42.9745	5.000000
43.015	12
43.0555	8.000000
43.0961	7.000000
43.1366	7.000000
43.1771	9.000000
43.2176	10
43.2581	4.000000
43.2987	1.000000
43.3392	7.000000
43.3797	7.000000
43.4202	7.000000
43.4607	8.000000
43.5013	5.000000
43.5418	6.000000
43.5823	4.000000
43.6228	2.000000
43.6633	7.000000
43.7039	6.000000
43.7444	9.000000
43.7849	8.000000
43.8254	10
43.8659	10
43.9064	8.000000
43.947	7.000000
43.9875	8.000000
44.028	6.000000
44.0685	9.000000
44.109	4.000000
44.1496	7.000000
44.1901	8.000000
44.2306	4.000000
44.2711	9.000000
44.3116	11
44.3522	3.000000
44.3927	9.000000
44.4332	11
44.4737	9.000000
44.5142	7.000000
44.5548	9.000000
44.5953	5.000000
44.6358	9.000000
44.6763	6.000000
44.7168	10
44.7574	8.000000
44.7979	9.000000
44.8384	14
44.8789	10
44.9194	9.000000
44.96	15
45.0005	11
45.041	11
45.0815	15
45.122	12
45.1625	13
45.2031	6.000000
45.2436	18
45.2841	11
45.3246	16
45.3651	14
45.4057	10
45.4462	15
45.4867	10
45.5272	15
45.5677	10
45.6083	11
45.6488	11
45.6893	11
45.7298	17
45.7703	10
45.8109	11
45.8514	13
45.8919	13
45.9324	17
45.9729	15
46.0135	21
46.054	19
46.0945	28
46.135	30
46.1755	37
46.2161	40
46.2566	59
46.2971	86
46.3376	142
46.3781	212
46.4186	267
46.4592	339
46.4997	320
46.5402	231
46.5807	210
46.6212	133
46.6618	100
46.7023	52
46.7428	43
46.7833	32
46.8238	33
46.8644	16
46.9049	23
46.9454	5.000000
46.9859	9.000000
47.0264	13
47.067	12
47.1075	13
47.148	5.000000
47.1885	12
47.229	6.000000
47.2696	5.000000
47.3101	9.000000
47.3506	11
47.3911	5.000000
47.4316	9.000000
47.4722	9.000000
47.5127	5.000000
47.5532	8.000000
47.5937	8.000000
47.6342	4.000000
47.6748	11
47.7153	8.000000
47.7558	5.000000
47.7963	6.000000
47.8368	7.000000
47.8773	12
47.9179	6.000000
47.9584	8.000000
47.9989	10
48.0394	6.000000
48.0799	10
48.1205	8.000000
48.161	11
48.2015	18
48.242	11
48.2825	9.000000
48.3231	9.000000
48.3636	7.000000
48.4041	7.000000
48.4446	4.000000
48.4851	4.000000
48.5257	10
48.5662	6.000000
48.6067	3.000000
48.6472	9.000000
48.6877	4.000000
48.7283	4.000000
48.7688	9.000000
48.8093	10
48.8498	4.000000
48.8903	6.000000
48.9309	5.000000
48.9714	7.000000
49.0119	3.000000
49.0524	7.000000
49.0929	7.000000
49.1335	8.000000
49.174	8.000000
49.2145	10
49.255	6.000000
49.2955	6.000000
49.336	6.000000
49.3766	6.000000
49.4171	4.000000
49.4576	5.000000
49.4981	2.000000
49.5386	5.000000
49.5792	8.000000
49.6197	6.000000
49.6602	8.000000
49.7007	4.000000
49.7412	2.000000
49.7818	4.000000
49.8223	9.000000
49.8628	13
49.9033	5.000000
49.9438	6.000000
49.9844	3.000000
50.0249	10
50.0654	5.000000
50.1059	4.000000
50.1464	3.000000
50.187	6.000000
50.2275	8.000000
50.268	6.000000
50.3085	4.000000
50.349	3.000000
50.3896	3.000000
50.4301	4.000000
50.4706	4.000000
50.5111	3.000000
50.5516	12
50.5921	8.000000
50.6327	4.000000
50.6732	6.000000
50.7137	5.000000
50.7542	8.000000
50.7947	5.000000
50.8353	7.000000
50.8758	5.000000
50.9163	7.000000
50.9568	4.000000
50.9973	4.000000
51.0379	8.000000
51.0784	8.000000
51.1189	5.000000
51.1594	6.000000
51.1999	6.000000
51.2405	6.000000
51.281	3.000000
51.3215	8.000000
51.362	7.000000
51.4025	6.000000
51.4431	6.000000
51.4836	3.000000
51.5241	4.000000
51.5646	3.000000
51.6051	4.000000
51.6457	6.000000
51.6862	6.000000
51.7267	7.000000
51.7672	8.000000
51.8077	5.000000
51.8483	6.000000
51.8888	3.000000
51.9293	8.000000
51.9698	5.000000
52.0103	4.000000
52.0508	2.000000
52.0914	6.000000
52.1319	5.000000
52.1724	6.000000
52.2129	6.000000
52.2534	4.000000
52.294	7.000000
52.3345	5.000000
52.375	7.000000
52.4155	5.000000
52.456	4.000000
52.4966	5.000000
52.5371	5.000000
52.5776	5.000000
52.6181	6.000000
52.6586	4.000000
52.6992	6.000000
52.7397	1.000000
52.7802	3.000000
52.8207	4.000000
52.8612	4.000000
52.9018	5.000000
52.9423	4.000000
52.9828	3.000000
53.0233	10
53.0638	6.000000
53.1044	5.000000
53.1449	8.000000
53.1854	6.000000
53.2259	2.000000
53.2664	3.000000
53.3069	5.000000
53.3475	5.000000
53.388	6.000000
53.4285	5.000000
53.469	8.000000
53.5095	4.000000
53.5501	1.000000
53.5906	3.000000
53.6311	12
53.6716	11
53.7121	5.000000
53.7527	0.000000
53.7932	8.000000
53.8337	6.000000
53.8742	4.000000
53.9147	2.000000
53.9553	3.000000
53.9958	4.000000
54.0363	2.000000
54.0768	4.000000
54.1173	11
54.1579	5.000000
54.1984	10
54.2389	2.000000
54.2794	7.000000
54.3199	7.000000
54.3605	8.000000
54.401	8.000000
54.4415	0.000000
54.482	5.000000
54.5225	12
54.563	11
54.6036	5.000000
54.6441	7.000000
54.6846	7.000000
54.7251	7.000000
54.7656	4.000000
54.8062	2.000000
54.8467	7.000000
54.8872	4.000000
54.9277	7.000000
54.9682	7.000000
55.0088	7.000000
55.0493	5.000000
55.0898	3.000000
55.1303	9.000000
55.1708	8.000000
55.2114	5.000000
55.2519	4.000000
55.2924	8.000000
55.3329	7.000000
55.3734	7.000000
55.414	5.000000
55.4545	9.000000
55.495	2.000000
55.5355	9.000000
55.576	8.000000
55.6166	4.000000
55.6571	6.000000
55.6976	2.000000
55.7381	13
55.7786	9.000000
55.8192	4.000000
55.8597	8.000000
55.9002	5.000000
55.9407	10
55.9812	8.000000
56.0217	10
56.0623	9.000000
56.1028	11
56.1433	12
56.1838	12
56.2243	4.000000
56.2649	9.000000
56.3054	10
56.3459	9.000000
56.3864	19
56.4269	16
56.4675	7.000000
56.508	8.000000
56.5485	4.000000
56.589	8.000000
56.6295	6.000000
56.6701	8.000000
56.7106	5.000000
56.7511	12
56.7916	10
56.8321	9.000000
56.8727	4.000000
56.9132	2.000000
56.9537	8.000000
56.9942	5.000000
57.0347	3.000000
57.0753	6.000000
57.1158	5.000000
57.1563	5.000000
57.1968	7.000000
57.2373	5.000000
57.2779	3.000000
57.3184	5.000000
57.3589	4.000000
57.3994	7.000000
57.4399	5.000000
57.4804	8.000000
57.521	4.000000
57.5615	5.000000
57.602	9.000000
57.6425	4.000000
57.683	9.000000
57.7236	5.000000
57.7641	7.000000
57.8046	8.000000
57.8451	4.000000
57.8856	8.000000
57.9262	2.000000
57.9667	6.000000
58.0072	3.000000
58.0477	7.000000
58.0882	6.000000
58.1288	8.000000
58.1693	9.000000
58.2098	5.000000
58.2503	4.000000
58.2908	6.000000
58.3314	4.000000
58.3719	6.000000
58.4124	7.000000
58.4529	5.000000
58.4934	7.000000
58.534	2.000000
58.5745	5.000000
58.615	0.000000
58.6555	8.000000
58.696	6.000000
58.7365	3.000000
58.7771	6.000000
58.8176	4.000000
58.8581	4.000000
58.8986	3.000000
58.9391	4.000000
58.9797	8.000000
59.0202	5.000000
59.0607	4.000000
59.1012	5.000000
59.1417	7.000000
59.1823	7.000000
59.2228	4.000000
59.2633	4.000000
59.3038	9.000000
59.3443	5.000000
59.3849	2.000000
59.4254	6.000000
59.4659	3.000000
59.5064	3.000000
59.5469	0.000000
59.5875	6.000000
59.628	6.000000
59.6685	6.000000
59.709	5.000000
59.7495	6.000000
59.7901	5.000000
59.8306	5.000000
59.8711	7.000000
59.9116	2.000000
59.9521	8.000000
59.9926	5.000000
60.0332	4.000000
60.0737	5.000000
60.1142	6.000000
60.1547	6.000000
60.1952	3.000000
60.2358	2.000000
60.2763	6.000000
60.3168	5.000000
60.3573	8.000000
60.3978	4.000000
60.4384	6.000000
60.4789	6.000000
60.5194	5.000000
60.5599	10
60.6004	8.000000
60.641	2.000000
60.6815	8.000000
60.722	6.000000
60.7625	6.000000
60.803	1.000000
60.8436	3.000000
60.8841	5.000000
60.9246	5.000000
60.9651	5.000000
61.0056	11
61.0462	5.000000
61.0867	2.000000
61.1272	2.000000
61.1677	4.000000
61.2082	9.000000
61.2488	7.000000
61.2893	7.000000
61.3298	6.000000
61.3703	4.000000
61.4108	11
61.4513	3.000000
61.4919	7.000000
61.5324	7.000000
61.5729	10
61.6134	5.000000
61.6539	21
61.6945	23
61.735	12
61.7755	18
61.816	12
61.8565	8.000000
61.8971	3.000000
61.9376	7.000000
61.9781	7.000000
62.0186	8.000000
62.0591	13
62.0997	7.000000
62.1402	5.000000
62.1807	4.000000
62.2212	11
62.2617	4.000000
62.3023	4.000000
62.3428	7.000000
62.3833	5.000000
62.4238	3.000000
62.4643	10
62.5049	4.000000
62.5454	10
62.5859	5.000000
62.6264	3.000000
62.6669	7.000000
62.7075	9.000000
62.748	9.000000
62.7885	11
62.829	12
62.8695	5.000000
62.91	4.000000
62.9506	7.000000
62.9911	10
63.0316	6.000000
63.0721	4.000000
63.1126	8.000000
63.1532	4.000000
63.1937	7.000000
63.2342	9.000000
63.2747	7.000000
63.3152	6.000000
63.3558	8.000000
63.3963	9.000000
63.4368	9.000000
63.4773	7.000000
63.5178	9.000000
63.5584	7.000000
63.5989	4.000000
63.6394	7.000000
63.6799	9.000000
63.7204	7.000000
63.761	10
63.8015	11
63.842	7.000000
63.8825	5.000000
63.923	6.000000
63.9636	10
64.0041	13
64.0446	7.000000
64.0851	12
64.1256	7.000000
64.1661	10
64.2067	12
64.2472	5.000000
64.2877	9.000000
64.3282	11
64.3687	7.000000
64.4093	12
64.4498	12
64.4903	9.000000
64.5308	14
64.5713	11
64.6119	12
64.6524	13
64.6929	12
64.7334	6.000000
64.7739	9.000000
64.8145	8.000000
64.855	9.000000
64.8955	14
64.936	12
64.9765	11
65.0171	12
65.0576	10
65.0981	18
65.1386	21
65.1791	21
65.2197	5.000000
65.2602	12
65.3007	17
65.3412	22
65.3817	19
65.4223	14
65.4628	19
65.5033	20
65.5438	19
65.5843	18
65.6248	21
65.6654	23
65.7059	18
65.7464	30
65.7869	47
65.8274	56
65.868	47
65.9085	45
65.949	51
65.9895	26
66.03	25
66.0706	26
66.1111	34
66.1516	27
66.1921	21
66.2326	39
66.2732	23
66.3137	60
66.3542	144
66.3947	364
66.4352	502
66.4758	606
66.5163	663
66.5568	669
66.5973	524
66.6378	423
66.6784	406
66.7189	391
66.7594	395
66.7999	371
66.8404	401
66.8809	416
66.9215	394
66.962	418
67.0025	406
67.043	370
67.0835	429
67.1241	446
67.1646	445
67.2051	454
67.2456	457
67.2861	462
67.3267	460
67.3672	471
67.4077	481
67.4482	479
67.4887	488
67.5293	539
67.5698	538
67.6103	645
67.6508	723
67.6913	732
67.7319	745
67.7724	744
67.8129	697
67.8534	694
67.8939	685
67.9345	658
67.975	647
68.0155	580
68.056	638
68.0965	645
68.1371	657
68.1776	675
68.2181	657
68.2586	682
68.2991	686
68.3396	723
68.3802	730
68.4207	799
68.4612	860
68.5017	912
68.5422	1005
68.5828	1088
68.6233	1195
68.6638	1509
68.7043	1941
68.7448	2455
68.7854	2950
68.8259	3153
68.8664	3452
68.9069	3988
68.9474	5581
68.988	10355
69.0285	42187
69.069	120316
69.1095	137958
69.15	135187
69.1906	96573
69.2311	47937
69.2716	64879
69.3121	68760
69.3526	65394
69.3932	37796
69.4337	9784
69.4742	4132
69.5147	2792
69.5552	2100
69.5957	1709
69.6363	1399
69.6768	1151
69.7173	1058
69.7578	925
69.7983	773
69.8389	718
69.8794	681
69.9199	623
69.9604	551
70.0009	499
70.0415	491
70.082	477
70.1225	430
70.163	423
70.2035	403
70.2441	346
70.2846	368
70.3251	354
70.3656	312
70.4061	315
70.4467	265
70.4872	277
70.5277	254
70.5682	239
70.6087	236
70.6493	218
70.6898	196
70.7303	200
70.7708	179
70.8113	179
70.8518	162
70.8924	154
70.9329	150
70.9734	144
71.0139	145
71.0544	147
71.095	136
71.1355	134
71.176	110
71.2165	127
71.257	103
71.2976	104
71.3381	84
71.3786	116
71.4191	99
71.4596	100
71.5002	94
71.5407	86
71.5812	105
71.6217	101
71.6622	74
71.7028	82
71.7433	70
71.7838	80
71.8243	65
71.8648	61
71.9054	65
71.9459	75
71.9864	58
72.0269	67
72.0674	60
72.108	47
72.1485	54
72.189	60
72.2295	55
72.27	39
72.3105	54
72.3511	55
72.3916	45
72.4321	51
72.4726	47
72.5131	48
72.5537	49
72.5942	43
72.6347	33
72.6752	31
72.7157	46
72.7563	39
72.7968	49
72.8373	31
72.8778	39
72.9183	40
72.9589	48
72.9994	36
73.0399	39
73.0804	38
73.1209	33
73.1615	28
73.202	34
73.2425	36
73.283	37
73.3235	29
73.3641	25
73.4046	32
73.4451	40
73.4856	33
73.5261	23
73.5666	26
73.6072	27
73.6477	20
73.6882	32
73.7287	29
73.7692	26
73.8098	32
73.8503	27
73.8908	32
73.9313	23
73.9718	27
74.0124	23
74.0529	27
74.0934	21
74.1339	21
74.1744	22
74.215	20
74.2555	21
74.296	21
74.3365	22
74.377	13
74.4176	23
74.4581	17
74.4986	24
74.5391	16
74.5796	22
74.6202	17
74.6607	24
74.7012	15
74.7417	18
74.7822	19
74.8228	28
74.8633	25
74.9038	19
74.9443	25
74.9848	22
75.0253	20
75.0659	29
75.1064	19
75.1469	14
75.1874	18
75.2279	24
75.2685	14
75.309	24
75.3495	23
75.39	16
75.4305	15
75.4711	21
75.5116	20
75.5521	21
75.5926	15
75.6331	24
75.6737	15
75.7142	16
75.7547	12
75.7952	20
75.8357	14
75.8763	18
75.9168	14
75.9573	20
75.9978	15
76.0383	22
76.0789	17
76.1194	25
76.1599	30
76.2004	24
76.2409	19
76.2815	30
76.322	24
76.3625	32
76.403	30
76.4435	21
76.484	25
76.5246	12
76.5651	13
76.6056	8.000000
76.6461	17
76.6866	13
76.7272	13
76.7677	18
76.8082	14
76.8487	15
76.8892	12
76.9298	18
76.9703	15
77.0108	12
77.0513	15
77.0918	10
77.1324	11
77.1729	10
77.2134	11
77.2539	9.000000
77.2944	18
77.335	12
77.3755	6.000000
77.416	18
77.4565	9.000000
77.497	12
77.5376	15
77.5781	9.000000
77.6186	15
77.6591	6.000000
77.6996	7.000000
77.7401	9.000000
77.7807	11
77.8212	11
77.8617	17
77.9022	8.000000
77.9427	8.000000
77.9833	11
78.0238	9.000000
78.0643	10
78.1048	14
78.1453	13
78.1859	14
78.2264	10
78.2669	14
78.3074	11
78.3479	10
78.3885	12
78.429	10
78.4695	10
78.51	13
78.5505	6.000000
78.5911	9.000000
78.6316	4.000000
78.6721	10
78.7126	8.000000
78.7531	8.000000
78.7937	7.000000
78.8342	7.000000
78.8747	6.000000
78.9152	9.000000
78.9557	8.000000
78.9963	6.000000
79.0368	16
79.0773	12
79.1178	8.000000
79.1583	8.000000
79.1988	17
79.2394	14
79.2799	4.000000
79.3204	7.000000
79.3609	9.000000
79.4014	8.000000
79.442	9.000000
79.4825	3.000000
79.523	4.000000
79.5635	7.000000
79.604	11
79.6446	10
79.6851	11
79.7256	8.000000
79.7661	15
79.8066	5.000000
79.8472	8.000000
79.8877	10
79.9282	12
79.9687	8.000000
80.0092	9.000000