File: ThemeT/BTO_XRD/1,2班XRD/201209_1班XRD.csv
;content of C:\Users\Bruker\AppData\Local\Temp\92fetmp-49812754.raw - (Diffrac Plus V4 file)
_FILEVERSION = 3
_SAMPLE = Commander Sample ID
_+SAMPLE
_USER = Lab Manager
_GONIOMETER_CODE = 21
_STAGE_CODE = 4
; Goniometer : D8 theta/theta, stage : Open eulerian craddle
_SAMPLE_CHANGER_CODE = 0
_ATTACHMENTS_CODE = 0
_GONIOMETER_RADIUS = 415
_MONOCHROMATOR = 0
; Incident beam monochromator : None
_BETA_FILTER = N
_ANALYZER_CODE = 0
; Received beam analyzer : None
_DATEMEASURED = 09-Dec-2020 15:20:24
_RUNTIME = 12.37281
_WL_UNIT = A
_WL1 = 1.5406
_WL2 = 1.54439
_WL3 = 1.39222
_WLRATIO = 0.5
_ANODE = Cu
_V4_INF_USER = Lab Manager
_V4_INF_SAMPLEID = Commander Sample ID
_V4_INF_CREATOR = V5Converter
_V4_INF_CREATOR_VERSION = 3.3.47.0
_V4_INF_SUBSTRATE = Si (no database)
_V4_INF_LAYER = Si (no database)

; Data for range 1
_DRIVE = COUPLED
_STEPTIME = 76.8
_STEPSIZE = 0.02026
_STEPMODE = C
_START = 20
_THETA = 10
_2THETA = 20
_KHI = -0.3
_PHI = 0
_X = -9.77
_Y = 0
_Z = 0.7
_DETECTORSLIT = out
_AUX2 = 0
_TIMESTARTED = 0
_KV = 40
_MA = 40
_RANGE_WL = 1.5406
_3DPLANE = 0
_V4_PSD2THETA = 9999
_V4_PSDCHANNEL1 = 0
_V4_PSDAPERTURE = 2.083855
_V4_PSDTYPE = 5
_V4_PSDFIXED = 0
_V4_COUNTERS_MASK = 1
_V4_DRIVES_MASK = 0
_V4_ENCODERS_MASK = 0
_2THETACOUNTS = 1
; 2THETA	Cnt2_D1
20	21
20.0405	20
20.081	17
20.1216	16
20.1621	20
20.2026	15
20.2431	17
20.2836	15
20.3242	27
20.3647	26
20.4052	17
20.4457	16
20.4862	20
20.5268	19
20.5673	23
20.6078	18
20.6483	15
20.6888	19
20.7293	20
20.7699	22
20.8104	23
20.8509	14
20.8914	27
20.9319	20
20.9725	22
21.013	19
21.0535	20
21.094	22
21.1345	14
21.1751	24
21.2156	14
21.2561	15
21.2966	20
21.3371	12
21.3777	20
21.4182	13
21.4587	22
21.4992	18
21.5397	18
21.5803	20
21.6208	20
21.6613	19
21.7018	20
21.7423	22
21.7829	24
21.8234	18
21.8639	21
21.9044	19
21.9449	19
21.9855	13
22.026	25
22.0665	18
22.107	20
22.1475	12
22.188	23
22.2286	21
22.2691	22
22.3096	20
22.3501	8.000000
22.3906	17
22.4312	29
22.4717	25
22.5122	30
22.5527	25
22.5932	27
22.6338	18
22.6743	18
22.7148	24
22.7553	24
22.7958	20
22.8364	22
22.8769	18
22.9174	30
22.9579	18
22.9984	16
23.039	28
23.0795	16
23.12	23
23.1605	21
23.201	24
23.2416	18
23.2821	24
23.3226	21
23.3631	23
23.4036	25
23.4441	27
23.4847	28
23.5252	25
23.5657	29
23.6062	23
23.6467	18
23.6873	24
23.7278	14
23.7683	19
23.8088	15
23.8493	15
23.8899	23
23.9304	22
23.9709	16
24.0114	19
24.0519	18
24.0925	17
24.133	17
24.1735	13
24.214	14
24.2545	9.000000
24.2951	14
24.3356	15
24.3761	11
24.4166	20
24.4571	15
24.4977	21
24.5382	14
24.5787	13
24.6192	14
24.6597	18
24.7003	10
24.7408	11
24.7813	12
24.8218	10
24.8623	12
24.9028	13
24.9434	15
24.9839	15
25.0244	14
25.0649	12
25.1054	12
25.146	16
25.1865	17
25.227	12
25.2675	14
25.308	8.000000
25.3486	17
25.3891	19
25.4296	12
25.4701	13
25.5106	14
25.5512	17
25.5917	14
25.6322	9.000000
25.6727	19
25.7132	11
25.7538	15
25.7943	10
25.8348	12
25.8753	16
25.9158	13
25.9564	16
25.9969	13
26.0374	13
26.0779	15
26.1184	14
26.1589	21
26.1995	12
26.24	12
26.2805	15
26.321	11
26.3615	12
26.4021	13
26.4426	11
26.4831	16
26.5236	20
26.5641	18
26.6047	8.000000
26.6452	8.000000
26.6857	12
26.7262	16
26.7667	14
26.8073	22
26.8478	17
26.8883	13
26.9288	15
26.9693	27
27.0099	18
27.0504	28
27.0909	23
27.1314	13
27.1719	19
27.2125	17
27.253	9.000000
27.2935	9.000000
27.334	14
27.3745	13
27.4151	13
27.4556	9.000000
27.4961	16
27.5366	14
27.5771	9.000000
27.6176	17
27.6582	12
27.6987	14
27.7392	9.000000
27.7797	15
27.8202	19
27.8608	12
27.9013	10
27.9418	12
27.9823	16
28.0228	15
28.0634	10
28.1039	10
28.1444	10
28.1849	11
28.2254	12
28.266	10
28.3065	8.000000
28.347	13
28.3875	9.000000
28.428	11
28.4686	15
28.5091	14
28.5496	13
28.5901	14
28.6306	14
28.6712	18
28.7117	16
28.7522	12
28.7927	25
28.8332	28
28.8737	20
28.9143	32
28.9548	25
28.9953	32
29.0358	29
29.0763	29
29.1169	27
29.1574	23
29.1979	18
29.2384	15
29.2789	15
29.3195	15
29.36	12
29.4005	9.000000
29.441	16
29.4815	9.000000
29.5221	9.000000
29.5626	12
29.6031	10
29.6436	11
29.6841	9.000000
29.7247	8.000000
29.7652	7.000000
29.8057	9.000000
29.8462	7.000000
29.8867	6.000000
29.9273	8.000000
29.9678	10
30.0083	8.000000
30.0488	16
30.0893	10
30.1299	7.000000
30.1704	12
30.2109	4.000000
30.2514	6.000000
30.2919	5.000000
30.3324	13
30.373	10
30.4135	9.000000
30.454	10
30.4945	8.000000
30.535	11
30.5756	9.000000
30.6161	6.000000
30.6566	5.000000
30.6971	14
30.7376	8.000000
30.7782	14
30.8187	5.000000
30.8592	11
30.8997	15
30.9402	8.000000
30.9808	12
31.0213	14
31.0618	6.000000
31.1023	14
31.1428	15
31.1834	17
31.2239	18
31.2644	10
31.3049	14
31.3454	7.000000
31.386	3.000000
31.4265	13
31.467	8.000000
31.5075	9.000000
31.548	7.000000
31.5885	5.000000
31.6291	8.000000
31.6696	16
31.7101	8.000000
31.7506	13
31.7911	11
31.8317	9.000000
31.8722	11
31.9127	13
31.9532	6.000000
31.9937	9.000000
32.0343	7.000000
32.0748	16
32.1153	14
32.1558	15
32.1963	9.000000
32.2369	12
32.2774	11
32.3179	15
32.3584	10
32.3989	9.000000
32.4395	7.000000
32.48	10
32.5205	12
32.561	12
32.6015	10
32.6421	9.000000
32.6826	16
32.7231	10
32.7636	23
32.8041	21
32.8447	48
32.8852	234
32.9257	308
32.9662	420
33.0067	429
33.0472	215
33.0878	171
33.1283	41
33.1688	24
33.2093	14
33.2498	19
33.2904	13
33.3309	16
33.3714	12
33.4119	9.000000
33.4524	7.000000
33.493	8.000000
33.5335	11
33.574	6.000000
33.6145	4.000000
33.655	7.000000
33.6956	7.000000
33.7361	15
33.7766	8.000000
33.8171	11
33.8576	8.000000
33.8982	10
33.9387	8.000000
33.9792	9.000000
34.0197	10
34.0602	8.000000
34.1008	12
34.1413	10
34.1818	6.000000
34.2223	10
34.2628	9.000000
34.3033	12
34.3439	8.000000
34.3844	7.000000
34.4249	6.000000
34.4654	10
34.5059	11
34.5465	11
34.587	8.000000
34.6275	11
34.668	9.000000
34.7085	9.000000
34.7491	10
34.7896	8.000000
34.8301	5.000000
34.8706	8.000000
34.9111	6.000000
34.9517	10
34.9922	12
35.0327	3.000000
35.0732	9.000000
35.1137	7.000000
35.1543	12
35.1948	10
35.2353	10
35.2758	4.000000
35.3163	5.000000
35.3569	4.000000
35.3974	6.000000
35.4379	5.000000
35.4784	9.000000
35.5189	9.000000
35.5595	9.000000
35.6	2.000000
35.6405	4.000000
35.681	11
35.7215	5.000000
35.762	6.000000
35.8026	8.000000
35.8431	7.000000
35.8836	6.000000
35.9241	6.000000
35.9646	9.000000
36.0052	5.000000
36.0457	7.000000
36.0862	11
36.1267	6.000000
36.1672	4.000000
36.2078	9.000000
36.2483	8.000000
36.2888	7.000000
36.3293	13
36.3698	6.000000
36.4104	11
36.4509	9.000000
36.4914	4.000000
36.5319	11
36.5724	6.000000
36.613	6.000000
36.6535	8.000000
36.694	7.000000
36.7345	6.000000
36.775	12
36.8156	6.000000
36.8561	3.000000
36.8966	3.000000
36.9371	2.000000
36.9776	9.000000
37.0181	7.000000
37.0587	7.000000
37.0992	6.000000
37.1397	9.000000
37.1802	6.000000
37.2207	6.000000
37.2613	10
37.3018	5.000000
37.3423	11
37.3828	7.000000
37.4233	6.000000
37.4639	9.000000
37.5044	6.000000
37.5449	2.000000
37.5854	6.000000
37.6259	12
37.6665	6.000000
37.707	6.000000
37.7475	11
37.788	11
37.8285	5.000000
37.8691	4.000000
37.9096	9.000000
37.9501	7.000000
37.9906	7.000000
38.0311	3.000000
38.0717	4.000000
38.1122	2.000000
38.1527	3.000000
38.1932	8.000000
38.2337	11
38.2743	8.000000
38.3148	8.000000
38.3553	6.000000
38.3958	3.000000
38.4363	4.000000
38.4768	4.000000
38.5174	5.000000
38.5579	9.000000
38.5984	8.000000
38.6389	5.000000
38.6794	8.000000
38.72	12
38.7605	2.000000
38.801	8.000000
38.8415	12
38.882	6.000000
38.9226	5.000000
38.9631	8.000000
39.0036	5.000000
39.0441	7.000000
39.0846	5.000000
39.1252	6.000000
39.1657	5.000000
39.2062	5.000000
39.2467	3.000000
39.2872	3.000000
39.3278	11
39.3683	8.000000
39.4088	4.000000
39.4493	10
39.4898	8.000000
39.5304	2.000000
39.5709	4.000000
39.6114	5.000000
39.6519	0.000000
39.6924	7.000000
39.7329	13
39.7735	8.000000
39.814	4.000000
39.8545	10
39.895	4.000000
39.9355	7.000000
39.9761	9.000000
40.0166	9.000000
40.0571	8.000000
40.0976	5.000000
40.1381	3.000000
40.1787	7.000000
40.2192	5.000000
40.2597	8.000000
40.3002	12
40.3407	7.000000
40.3813	5.000000
40.4218	8.000000
40.4623	9.000000
40.5028	9.000000
40.5433	5.000000
40.5839	3.000000
40.6244	5.000000
40.6649	8.000000
40.7054	3.000000
40.7459	9.000000
40.7865	4.000000
40.827	8.000000
40.8675	6.000000
40.908	14
40.9485	3.000000
40.989	8.000000
41.0296	6.000000
41.0701	9.000000
41.1106	11
41.1511	5.000000
41.1916	3.000000
41.2322	7.000000
41.2727	6.000000
41.3132	5.000000
41.3537	10
41.3942	8.000000
41.4348	8.000000
41.4753	5.000000
41.5158	13
41.5563	3.000000
41.5968	12
41.6374	8.000000
41.6779	6.000000
41.7184	4.000000
41.7589	7.000000
41.7994	9.000000
41.84	5.000000
41.8805	3.000000
41.921	10
41.9615	10
42.002	6.000000
42.0426	4.000000
42.0831	8.000000
42.1236	6.000000
42.1641	5.000000
42.2046	6.000000
42.2452	4.000000
42.2857	5.000000
42.3262	3.000000
42.3667	5.000000
42.4072	6.000000
42.4477	4.000000
42.4883	5.000000
42.5288	3.000000
42.5693	2.000000
42.6098	6.000000
42.6503	8.000000
42.6909	9.000000
42.7314	5.000000
42.7719	10
42.8124	8.000000
42.8529	9.000000
42.8935	6.000000
42.934	3.000000
42.9745	5.000000
43.015	7.000000
43.0555	10
43.0961	5.000000
43.1366	6.000000
43.1771	3.000000
43.2176	5.000000
43.2581	8.000000
43.2987	5.000000
43.3392	5.000000
43.3797	5.000000
43.4202	6.000000
43.4607	8.000000
43.5013	8.000000
43.5418	4.000000
43.5823	6.000000
43.6228	2.000000
43.6633	9.000000
43.7039	2.000000
43.7444	10
43.7849	6.000000
43.8254	6.000000
43.8659	4.000000
43.9064	11
43.947	5.000000
43.9875	3.000000
44.028	5.000000
44.0685	9.000000
44.109	9.000000
44.1496	10
44.1901	7.000000
44.2306	9.000000
44.2711	6.000000
44.3116	6.000000
44.3522	2.000000
44.3927	9.000000
44.4332	7.000000
44.4737	7.000000
44.5142	1.000000
44.5548	2.000000
44.5953	5.000000
44.6358	4.000000
44.6763	4.000000
44.7168	5.000000
44.7574	4.000000
44.7979	6.000000
44.8384	5.000000
44.8789	11
44.9194	5.000000
44.96	8.000000
45.0005	6.000000
45.041	6.000000
45.0815	8.000000
45.122	7.000000
45.1625	7.000000
45.2031	5.000000
45.2436	5.000000
45.2841	3.000000
45.3246	4.000000
45.3651	5.000000
45.4057	3.000000
45.4462	8.000000
45.4867	5.000000
45.5272	9.000000
45.5677	5.000000
45.6083	6.000000
45.6488	1.000000
45.6893	3.000000
45.7298	5.000000
45.7703	7.000000
45.8109	6.000000
45.8514	2.000000
45.8919	7.000000
45.9324	5.000000
45.9729	3.000000
46.0135	8.000000
46.054	6.000000
46.0945	6.000000
46.135	3.000000
46.1755	0.000000
46.2161	5.000000
46.2566	8.000000
46.2971	6.000000
46.3376	4.000000
46.3781	0.000000
46.4186	3.000000
46.4592	7.000000
46.4997	4.000000
46.5402	2.000000
46.5807	4.000000
46.6212	6.000000
46.6618	7.000000
46.7023	8.000000
46.7428	6.000000
46.7833	3.000000
46.8238	5.000000
46.8644	4.000000
46.9049	3.000000
46.9454	6.000000
46.9859	7.000000
47.0264	6.000000
47.067	5.000000
47.1075	13
47.148	7.000000
47.1885	4.000000
47.229	5.000000
47.2696	4.000000
47.3101	8.000000
47.3506	7.000000
47.3911	14
47.4316	6.000000
47.4722	6.000000
47.5127	2.000000
47.5532	9.000000
47.5937	6.000000
47.6342	2.000000
47.6748	2.000000
47.7153	8.000000
47.7558	3.000000
47.7963	4.000000
47.8368	2.000000
47.8773	10
47.9179	5.000000
47.9584	4.000000
47.9989	8.000000
48.0394	7.000000
48.0799	5.000000
48.1205	4.000000
48.161	1.000000
48.2015	6.000000
48.242	4.000000
48.2825	0.000000
48.3231	8.000000
48.3636	5.000000
48.4041	9.000000
48.4446	12
48.4851	7.000000
48.5257	8.000000
48.5662	5.000000
48.6067	9.000000
48.6472	11
48.6877	4.000000
48.7283	6.000000
48.7688	7.000000
48.8093	5.000000
48.8498	4.000000
48.8903	7.000000
48.9309	6.000000
48.9714	5.000000
49.0119	6.000000
49.0524	0.000000
49.0929	5.000000
49.1335	7.000000
49.174	6.000000
49.2145	7.000000
49.255	4.000000
49.2955	7.000000
49.336	6.000000
49.3766	2.000000
49.4171	3.000000
49.4576	3.000000
49.4981	4.000000
49.5386	5.000000
49.5792	6.000000
49.6197	5.000000
49.6602	9.000000
49.7007	3.000000
49.7412	7.000000
49.7818	0.000000
49.8223	8.000000
49.8628	6.000000
49.9033	5.000000
49.9438	1.000000
49.9844	5.000000
50.0249	5.000000
50.0654	9.000000
50.1059	7.000000
50.1464	7.000000
50.187	4.000000
50.2275	7.000000
50.268	7.000000
50.3085	3.000000
50.349	3.000000
50.3896	5.000000
50.4301	1.000000
50.4706	9.000000
50.5111	8.000000
50.5516	7.000000
50.5921	3.000000
50.6327	4.000000
50.6732	8.000000
50.7137	5.000000
50.7542	5.000000
50.7947	6.000000
50.8353	7.000000
50.8758	6.000000
50.9163	7.000000
50.9568	6.000000
50.9973	9.000000
51.0379	3.000000
51.0784	0.000000
51.1189	4.000000
51.1594	10
51.1999	4.000000
51.2405	7.000000
51.281	5.000000
51.3215	6.000000
51.362	3.000000
51.4025	6.000000
51.4431	5.000000
51.4836	8.000000
51.5241	3.000000
51.5646	5.000000
51.6051	4.000000
51.6457	2.000000
51.6862	5.000000
51.7267	4.000000
51.7672	4.000000
51.8077	8.000000
51.8483	7.000000
51.8888	5.000000
51.9293	2.000000
51.9698	1.000000
52.0103	6.000000
52.0508	4.000000
52.0914	4.000000
52.1319	2.000000
52.1724	1.000000
52.2129	4.000000
52.2534	5.000000
52.294	5.000000
52.3345	7.000000
52.375	7.000000
52.4155	5.000000
52.456	7.000000
52.4966	7.000000
52.5371	7.000000
52.5776	8.000000
52.6181	11
52.6586	5.000000
52.6992	6.000000
52.7397	4.000000
52.7802	4.000000
52.8207	2.000000
52.8612	8.000000
52.9018	4.000000
52.9423	3.000000
52.9828	8.000000
53.0233	2.000000
53.0638	5.000000
53.1044	4.000000
53.1449	7.000000
53.1854	4.000000
53.2259	2.000000
53.2664	6.000000
53.3069	3.000000
53.3475	4.000000
53.388	5.000000
53.4285	9.000000
53.469	2.000000
53.5095	4.000000
53.5501	4.000000
53.5906	4.000000
53.6311	4.000000
53.6716	4.000000
53.7121	8.000000
53.7527	6.000000
53.7932	5.000000
53.8337	6.000000
53.8742	5.000000
53.9147	2.000000
53.9553	5.000000
53.9958	4.000000
54.0363	7.000000
54.0768	4.000000
54.1173	8.000000
54.1579	6.000000
54.1984	6.000000
54.2389	1.000000
54.2794	10
54.3199	4.000000
54.3605	6.000000
54.401	4.000000
54.4415	3.000000
54.482	7.000000
54.5225	1.000000
54.563	6.000000
54.6036	8.000000
54.6441	7.000000
54.6846	8.000000
54.7251	3.000000
54.7656	4.000000
54.8062	8.000000
54.8467	4.000000
54.8872	2.000000
54.9277	5.000000
54.9682	9.000000
55.0088	7.000000
55.0493	7.000000
55.0898	3.000000
55.1303	5.000000
55.1708	7.000000
55.2114	1.000000
55.2519	3.000000
55.2924	7.000000
55.3329	3.000000
55.3734	8.000000
55.414	4.000000
55.4545	4.000000
55.495	6.000000
55.5355	6.000000
55.576	4.000000
55.6166	4.000000
55.6571	2.000000
55.6976	7.000000
55.7381	7.000000
55.7786	4.000000
55.8192	5.000000
55.8597	6.000000
55.9002	8.000000
55.9407	7.000000
55.9812	5.000000
56.0217	9.000000
56.0623	6.000000
56.1028	7.000000
56.1433	0.000000
56.1838	6.000000
56.2243	5.000000
56.2649	7.000000
56.3054	12
56.3459	13
56.3864	9.000000
56.4269	4.000000
56.4675	9.000000
56.508	8.000000
56.5485	7.000000
56.589	7.000000
56.6295	7.000000
56.6701	7.000000
56.7106	6.000000
56.7511	6.000000
56.7916	9.000000
56.8321	10
56.8727	3.000000
56.9132	4.000000
56.9537	6.000000
56.9942	4.000000
57.0347	6.000000
57.0753	6.000000
57.1158	4.000000
57.1563	6.000000
57.1968	12
57.2373	7.000000
57.2779	8.000000
57.3184	8.000000
57.3589	6.000000
57.3994	3.000000
57.4399	2.000000
57.4804	7.000000
57.521	5.000000
57.5615	4.000000
57.602	6.000000
57.6425	4.000000
57.683	8.000000
57.7236	10
57.7641	4.000000
57.8046	5.000000
57.8451	8.000000
57.8856	7.000000
57.9262	1.000000
57.9667	3.000000
58.0072	1.000000
58.0477	3.000000
58.0882	7.000000
58.1288	9.000000
58.1693	3.000000
58.2098	7.000000
58.2503	4.000000
58.2908	5.000000
58.3314	7.000000
58.3719	4.000000
58.4124	8.000000
58.4529	4.000000
58.4934	0.000000
58.534	3.000000
58.5745	8.000000
58.615	8.000000
58.6555	4.000000
58.696	5.000000
58.7365	10
58.7771	8.000000
58.8176	7.000000
58.8581	4.000000
58.8986	2.000000
58.9391	6.000000
58.9797	4.000000
59.0202	6.000000
59.0607	6.000000
59.1012	10
59.1417	4.000000
59.1823	7.000000
59.2228	5.000000
59.2633	3.000000
59.3038	5.000000
59.3443	3.000000
59.3849	6.000000
59.4254	8.000000
59.4659	0.000000
59.5064	6.000000
59.5469	3.000000
59.5875	10
59.628	3.000000
59.6685	7.000000
59.709	7.000000
59.7495	8.000000
59.7901	3.000000
59.8306	2.000000
59.8711	4.000000
59.9116	10
59.9521	4.000000
59.9926	6.000000
60.0332	3.000000
60.0737	9.000000
60.1142	6.000000
60.1547	4.000000
60.1952	5.000000
60.2358	8.000000
60.2763	8.000000
60.3168	7.000000
60.3573	7.000000
60.3978	7.000000
60.4384	10
60.4789	5.000000
60.5194	6.000000
60.5599	3.000000
60.6004	8.000000
60.641	5.000000
60.6815	2.000000
60.722	5.000000
60.7625	10
60.803	2.000000
60.8436	2.000000
60.8841	5.000000
60.9246	5.000000
60.9651	6.000000
61.0056	4.000000
61.0462	1.000000
61.0867	7.000000
61.1272	7.000000
61.1677	4.000000
61.2082	9.000000
61.2488	7.000000
61.2893	7.000000
61.3298	5.000000
61.3703	9.000000
61.4108	8.000000
61.4513	9.000000
61.4919	4.000000
61.5324	6.000000
61.5729	7.000000
61.6134	19
61.6539	19
61.6945	18
61.735	18
61.7755	13
61.816	19
61.8565	3.000000
61.8971	12
61.9376	9.000000
61.9781	7.000000
62.0186	10
62.0591	4.000000
62.0997	5.000000
62.1402	6.000000
62.1807	8.000000
62.2212	10
62.2617	3.000000
62.3023	3.000000
62.3428	9.000000
62.3833	9.000000
62.4238	6.000000
62.4643	8.000000
62.5049	7.000000
62.5454	7.000000
62.5859	5.000000
62.6264	7.000000
62.6669	7.000000
62.7075	14
62.748	5.000000
62.7885	1.000000
62.829	10
62.8695	9.000000
62.91	6.000000
62.9506	8.000000
62.9911	11
63.0316	7.000000
63.0721	10
63.1126	8.000000
63.1532	4.000000
63.1937	5.000000
63.2342	9.000000
63.2747	7.000000
63.3152	8.000000
63.3558	8.000000
63.3963	5.000000
63.4368	10
63.4773	12
63.5178	6.000000
63.5584	12
63.5989	12
63.6394	8.000000
63.6799	9.000000
63.7204	5.000000
63.761	9.000000
63.8015	5.000000
63.842	10
63.8825	4.000000
63.923	13
63.9636	10
64.0041	14
64.0446	15
64.0851	12
64.1256	11
64.1661	11
64.2067	12
64.2472	10
64.2877	10
64.3282	11
64.3687	13
64.4093	16
64.4498	11
64.4903	15
64.5308	22
64.5713	13
64.6119	15
64.6524	13
64.6929	7.000000
64.7334	10
64.7739	8.000000
64.8145	17
64.855	18
64.8955	12
64.936	10
64.9765	15
65.0171	15
65.0576	22
65.0981	13
65.1386	13
65.1791	16
65.2197	13
65.2602	15
65.3007	13
65.3412	13
65.3817	16
65.4223	14
65.4628	17
65.5033	18
65.5438	16
65.5843	17
65.6248	15
65.6654	16
65.7059	23
65.7464	26
65.7869	41
65.8274	69
65.868	53
65.9085	59
65.949	55
65.9895	36
66.03	24
66.0706	30
66.1111	24
66.1516	25
66.1921	34
66.2326	24
66.2732	39
66.3137	62
66.3542	153
66.3947	383
66.4352	579
66.4758	620
66.5163	651
66.5568	634
66.5973	534
66.6378	503
66.6784	510
66.7189	448
66.7594	447
66.7999	449
66.8404	420
66.8809	444
66.9215	382
66.962	461
67.0025	487
67.043	466
67.0835	492
67.1241	485
67.1646	488
67.2051	438
67.2456	498
67.2861	515
67.3267	500
67.3672	503
67.4077	529
67.4482	486
67.4887	564
67.5293	565
67.5698	572
67.6103	540
67.6508	566
67.6913	569
67.7319	586
67.7724	627
67.8129	607
67.8534	576
67.8939	571
67.9345	627
67.975	668
68.0155	662
68.056	652
68.0965	740
68.1371	747
68.1776	796
68.2181	839
68.2586	850
68.2991	886
68.3396	888
68.3802	897
68.4207	935
68.4612	993
68.5017	1063
68.5422	1097
68.5828	1266
68.6233	1547
68.6638	1800
68.7043	2360
68.7448	3020
68.7854	3461
68.8259	3834
68.8664	3966
68.9069	4553
68.9474	6357
68.988	11592
69.0285	44948
69.069	141753
69.1095	164467
69.15	161876
69.1906	122499
69.2311	57215
69.2716	78274
69.3121	83131
69.3526	79828
69.3932	49561
69.4337	12787
69.4742	5241
69.5147	3561
69.5552	2659
69.5957	2114
69.6363	1808
69.6768	1442
69.7173	1261
69.7578	1143
69.7983	1037
69.8389	934
69.8794	877
69.9199	764
69.9604	724
70.0009	688
70.0415	651
70.082	588
70.1225	589
70.163	537
70.2035	489
70.2441	428
70.2846	411
70.3251	462
70.3656	397
70.4061	385
70.4467	361
70.4872	358
70.5277	354
70.5682	297
70.6087	308
70.6493	272
70.6898	232
70.7303	247
70.7708	239
70.8113	216
70.8518	227
70.8924	212
70.9329	208
70.9734	184
71.0139	166
71.0544	170
71.095	174
71.1355	159
71.176	153
71.2165	141
71.257	142
71.2976	153
71.3381	136
71.3786	141
71.4191	110
71.4596	130
71.5002	118
71.5407	88
71.5812	114
71.6217	91
71.6622	94
71.7028	86
71.7433	89
71.7838	89
71.8243	80
71.8648	103
71.9054	81
71.9459	78
71.9864	66
72.0269	79
72.0674	61
72.108	72
72.1485	74
72.189	65
72.2295	65
72.27	65
72.3105	72
72.3511	55
72.3916	52
72.4321	70
72.4726	59
72.5131	60
72.5537	52
72.5942	54
72.6347	54
72.6752	46
72.7157	58
72.7563	50
72.7968	44
72.8373	50
72.8778	42
72.9183	45
72.9589	45
72.9994	46
73.0399	56
73.0804	47
73.1209	38
73.1615	35
73.202	48
73.2425	28
73.283	56
73.3235	31
73.3641	28
73.4046	32
73.4451	27
73.4856	34
73.5261	31
73.5666	29
73.6072	30
73.6477	19
73.6882	32
73.7287	25
73.7692	32
73.8098	29
73.8503	23
73.8908	22
73.9313	31
73.9718	31
74.0124	28
74.0529	33
74.0934	32
74.1339	25
74.1744	22
74.215	33
74.2555	28
74.296	22
74.3365	21
74.377	38
74.4176	21
74.4581	36
74.4986	18
74.5391	23
74.5796	28
74.6202	19
74.6607	32
74.7012	19
74.7417	20
74.7822	17
74.8228	25
74.8633	24
74.9038	18
74.9443	18
74.9848	24
75.0253	15
75.0659	17
75.1064	14
75.1469	21
75.1874	23
75.2279	20
75.2685	28
75.309	22
75.3495	11
75.39	18
75.4305	21
75.4711	14
75.5116	11
75.5521	7.000000
75.5926	18
75.6331	18
75.6737	23
75.7142	23
75.7547	18
75.7952	16
75.8357	19
75.8763	21
75.9168	17
75.9573	22
75.9978	16
76.0383	26
76.0789	27
76.1194	22
76.1599	25
76.2004	30
76.2409	28
76.2815	34
76.322	29
76.3625	30
76.403	29
76.4435	21
76.484	27
76.5246	17
76.5651	14
76.6056	10
76.6461	17
76.6866	14
76.7272	14
76.7677	17
76.8082	17
76.8487	8.000000
76.8892	14
76.9298	10
76.9703	7.000000
77.0108	14
77.0513	11
77.0918	16
77.1324	14
77.1729	10
77.2134	13
77.2539	9.000000
77.2944	9.000000
77.335	11
77.3755	7.000000
77.416	16
77.4565	10
77.497	9.000000
77.5376	11
77.5781	14
77.6186	9.000000
77.6591	10
77.6996	13
77.7401	10
77.7807	8.000000
77.8212	13
77.8617	6.000000
77.9022	9.000000
77.9427	11
77.9833	8.000000
78.0238	9.000000
78.0643	6.000000
78.1048	10
78.1453	7.000000
78.1859	13
78.2264	7.000000
78.2669	9.000000
78.3074	9.000000
78.3479	10
78.3885	9.000000
78.429	9.000000
78.4695	11
78.51	15
78.5505	15
78.5911	3.000000
78.6316	9.000000
78.6721	14
78.7126	11
78.7531	6.000000
78.7937	8.000000
78.8342	11
78.8747	13
78.9152	8.000000
78.9557	14
78.9963	2.000000
79.0368	7.000000
79.0773	11
79.1178	9.000000
79.1583	8.000000
79.1988	12
79.2394	14
79.2799	9.000000
79.3204	6.000000
79.3609	4.000000
79.4014	5.000000
79.442	10
79.4825	6.000000
79.523	11
79.5635	5.000000
79.604	5.000000
79.6446	10
79.6851	8.000000
79.7256	6.000000
79.7661	8.000000
79.8066	7.000000
79.8472	9.000000
79.8877	6.000000
79.9282	7.000000
79.9687	6.000000
80.0092	8.000000
80.0295	8.000000