File: ThemeT/BTO_XRD/3,4班XRD/201209_3班XRD.csv
;content of C:\Users\Bruker\AppData\Local\Temp\92fetmp-49747219.raw - (Diffrac Plus V4 file)
_FILEVERSION = 3
_SAMPLE = Commander Sample ID
_+SAMPLE
_USER = Lab Manager
_GONIOMETER_CODE = 21
_STAGE_CODE = 4
; Goniometer : D8 theta/theta, stage : Open eulerian craddle
_SAMPLE_CHANGER_CODE = 0
_ATTACHMENTS_CODE = 0
_GONIOMETER_RADIUS = 415
_MONOCHROMATOR = 0
; Incident beam monochromator : None
_BETA_FILTER = N
_ANALYZER_CODE = 0
; Received beam analyzer : None
_DATEMEASURED = 09-Dec-2020 15:50:10
_RUNTIME = 12.37974
_WL_UNIT = A
_WL1 = 1.5406
_WL2 = 1.54439
_WL3 = 1.39222
_WLRATIO = 0.5
_ANODE = Cu
_V4_INF_USER = Lab Manager
_V4_INF_SAMPLEID = Commander Sample ID
_V4_INF_CREATOR = V5Converter
_V4_INF_CREATOR_VERSION = 3.3.47.0
_V4_INF_SUBSTRATE = Si (no database)
_V4_INF_LAYER = Si (no database)

; Data for range 1
_DRIVE = COUPLED
_STEPTIME = 76.8
_STEPSIZE = 0.02026
_STEPMODE = C
_START = 20
_THETA = 10
_2THETA = 20
_KHI = -0.4002
_PHI = 0
_X = -9.722
_Y = 0
_Z = 0.682
_DETECTORSLIT = out
_AUX2 = 0
_TIMESTARTED = 0
_KV = 40
_MA = 40
_RANGE_WL = 1.5406
_3DPLANE = 0
_V4_PSD2THETA = 9999
_V4_PSDCHANNEL1 = 0
_V4_PSDAPERTURE = 2.083855
_V4_PSDTYPE = 5
_V4_PSDFIXED = 0
_V4_COUNTERS_MASK = 1
_V4_DRIVES_MASK = 0
_V4_ENCODERS_MASK = 0
_2THETACOUNTS = 1
; 2THETA	Cnt2_D1
20	26
20.0405	21
20.081	25
20.1216	22
20.1621	26
20.2026	17
20.2431	25
20.2836	16
20.3242	21
20.3647	19
20.4052	25
20.4457	19
20.4862	22
20.5268	17
20.5673	20
20.6078	16
20.6483	25
20.6888	22
20.7293	17
20.7699	24
20.8104	25
20.8509	22
20.8914	15
20.9319	20
20.9725	15
21.013	34
21.0535	18
21.094	23
21.1345	16
21.1751	24
21.2156	26
21.2561	18
21.2966	19
21.3371	24
21.3777	24
21.4182	18
21.4587	28
21.4992	17
21.5397	15
21.5803	20
21.6208	25
21.6613	22
21.7018	17
21.7423	24
21.7829	28
21.8234	27
21.8639	27
21.9044	36
21.9449	31
21.9855	42
22.026	43
22.0665	56
22.107	42
22.1475	53
22.188	60
22.2286	36
22.2691	42
22.3096	47
22.3501	46
22.3906	48
22.4312	39
22.4717	46
22.5122	36
22.5527	36
22.5932	30
22.6338	38
22.6743	21
22.7148	27
22.7553	34
22.7958	25
22.8364	27
22.8769	26
22.9174	31
22.9579	26
22.9984	26
23.039	25
23.0795	33
23.12	26
23.1605	18
23.201	26
23.2416	21
23.2821	21
23.3226	21
23.3631	20
23.4036	27
23.4441	21
23.4847	19
23.5252	18
23.5657	15
23.6062	19
23.6467	13
23.6873	21
23.7278	23
23.7683	13
23.8088	14
23.8493	16
23.8899	14
23.9304	20
23.9709	18
24.0114	16
24.0519	21
24.0925	17
24.133	12
24.1735	15
24.214	15
24.2545	19
24.2951	12
24.3356	15
24.3761	12
24.4166	13
24.4571	20
24.4977	21
24.5382	13
24.5787	13
24.6192	19
24.6597	24
24.7003	9.000000
24.7408	16
24.7813	16
24.8218	12
24.8623	17
24.9028	14
24.9434	18
24.9839	27
25.0244	19
25.0649	21
25.1054	12
25.146	14
25.1865	16
25.227	20
25.2675	13
25.308	16
25.3486	23
25.3891	16
25.4296	11
25.4701	10
25.5106	17
25.5512	22
25.5917	21
25.6322	14
25.6727	18
25.7132	16
25.7538	22
25.7943	10
25.8348	19
25.8753	18
25.9158	18
25.9564	16
25.9969	14
26.0374	18
26.0779	18
26.1184	24
26.1589	26
26.1995	25
26.24	15
26.2805	15
26.321	20
26.3615	18
26.4021	12
26.4426	19
26.4831	23
26.5236	16
26.5641	20
26.6047	21
26.6452	25
26.6857	20
26.7262	20
26.7667	17
26.8073	23
26.8478	12
26.8883	18
26.9288	20
26.9693	24
27.0099	12
27.0504	16
27.0909	13
27.1314	13
27.1719	14
27.2125	16
27.253	20
27.2935	18
27.334	21
27.3745	17
27.4151	15
27.4556	9.000000
27.4961	13
27.5366	17
27.5771	15
27.6176	19
27.6582	20
27.6987	11
27.7392	12
27.7797	15
27.8202	18
27.8608	10
27.9013	17
27.9418	12
27.9823	21
28.0228	20
28.0634	15
28.1039	12
28.1444	13
28.1849	13
28.2254	20
28.266	11
28.3065	13
28.347	10
28.3875	17
28.428	14
28.4686	13
28.5091	14
28.5496	9.000000
28.5901	13
28.6306	23
28.6712	18
28.7117	20
28.7522	20
28.7927	15
28.8332	25
28.8737	30
28.9143	20
28.9548	18
28.9953	16
29.0358	17
29.0763	18
29.1169	23
29.1574	19
29.1979	13
29.2384	15
29.2789	15
29.3195	6.000000
29.36	12
29.4005	19
29.441	19
29.4815	17
29.5221	18
29.5626	16
29.6031	8.000000
29.6436	20
29.6841	18
29.7247	24
29.7652	13
29.8057	15
29.8462	21
29.8867	15
29.9273	18
29.9678	6.000000
30.0083	15
30.0488	14
30.0893	12
30.1299	20
30.1704	12
30.2109	20
30.2514	14
30.2919	9.000000
30.3324	21
30.373	19
30.4135	18
30.454	18
30.4945	21
30.535	24
30.5756	19
30.6161	22
30.6566	15
30.6971	18
30.7376	29
30.7782	21
30.8187	28
30.8592	30
30.8997	37
30.9402	25
30.9808	39
31.0213	46
31.0618	56
31.1023	48
31.1428	66
31.1834	61
31.2239	54
31.2644	83
31.3049	95
31.3454	89
31.386	113
31.4265	131
31.467	124
31.5075	126
31.548	129
31.5885	134
31.6291	110
31.6696	102
31.7101	100
31.7506	93
31.7911	98
31.8317	100
31.8722	95
31.9127	102
31.9532	70
31.9937	87
32.0343	79
32.0748	82
32.1153	80
32.1558	83
32.1963	56
32.2369	74
32.2774	70
32.3179	93
32.3584	68
32.3989	64
32.4395	77
32.48	77
32.5205	87
32.561	99
32.6015	110
32.6421	124
32.6826	149
32.7231	214
32.7636	263
32.8041	368
32.8447	816
32.8852	3868
32.9257	5294
32.9662	6726
33.0067	6465
33.0472	3250
33.0878	2158
33.1283	602
33.1688	182
33.2093	93
33.2498	41
33.2904	31
33.3309	32
33.3714	24
33.4119	16
33.4524	17
33.493	22
33.5335	22
33.574	16
33.6145	18
33.655	14
33.6956	10
33.7361	11
33.7766	17
33.8171	14
33.8576	13
33.8982	11
33.9387	20
33.9792	24
34.0197	21
34.0602	19
34.1008	20
34.1413	20
34.1818	18
34.2223	15
34.2628	12
34.3033	20
34.3439	20
34.3844	17
34.4249	15
34.4654	10
34.5059	6.000000
34.5465	14
34.587	11
34.6275	5.000000
34.668	10
34.7085	13
34.7491	9.000000
34.7896	10
34.8301	5.000000
34.8706	10
34.9111	7.000000
34.9517	9.000000
34.9922	9.000000
35.0327	11
35.0732	9.000000
35.1137	9.000000
35.1543	8.000000
35.1948	10
35.2353	10
35.2758	8.000000
35.3163	14
35.3569	4.000000
35.3974	9.000000
35.4379	8.000000
35.4784	10
35.5189	6.000000
35.5595	6.000000
35.6	9.000000
35.6405	8.000000
35.681	9.000000
35.7215	11
35.762	9.000000
35.8026	5.000000
35.8431	9.000000
35.8836	10
35.9241	7.000000
35.9646	6.000000
36.0052	7.000000
36.0457	4.000000
36.0862	7.000000
36.1267	6.000000
36.1672	8.000000
36.2078	11
36.2483	4.000000
36.2888	11
36.3293	6.000000
36.3698	12
36.4104	7.000000
36.4509	6.000000
36.4914	6.000000
36.5319	8.000000
36.5724	5.000000
36.613	8.000000
36.6535	9.000000
36.694	12
36.7345	8.000000
36.775	9.000000
36.8156	15
36.8561	4.000000
36.8966	14
36.9371	3.000000
36.9776	10
37.0181	8.000000
37.0587	8.000000
37.0992	5.000000
37.1397	9.000000
37.1802	7.000000
37.2207	11
37.2613	7.000000
37.3018	9.000000
37.3423	5.000000
37.3828	6.000000
37.4233	7.000000
37.4639	9.000000
37.5044	10
37.5449	5.000000
37.5854	11
37.6259	10
37.6665	10
37.707	5.000000
37.7475	13
37.788	13
37.8285	2.000000
37.8691	14
37.9096	8.000000
37.9501	12
37.9906	11
38.0311	16
38.0717	10
38.1122	11
38.1527	6.000000
38.1932	10
38.2337	13
38.2743	5.000000
38.3148	17
38.3553	14
38.3958	13
38.4363	7.000000
38.4768	16
38.5174	11
38.5579	19
38.5984	22
38.6389	21
38.6794	26
38.72	23
38.7605	28
38.801	25
38.8415	27
38.882	28
38.9226	28
38.9631	25
39.0036	19
39.0441	33
39.0846	22
39.1252	17
39.1657	16
39.2062	13
39.2467	16
39.2872	14
39.3278	12
39.3683	10
39.4088	15
39.4493	10
39.4898	11
39.5304	6.000000
39.5709	9.000000
39.6114	6.000000
39.6519	13
39.6924	6.000000
39.7329	9.000000
39.7735	10
39.814	6.000000
39.8545	4.000000
39.895	5.000000
39.9355	5.000000
39.9761	3.000000
40.0166	8.000000
40.0571	11
40.0976	13
40.1381	8.000000
40.1787	3.000000
40.2192	3.000000
40.2597	16
40.3002	6.000000
40.3407	6.000000
40.3813	12
40.4218	13
40.4623	3.000000
40.5028	11
40.5433	11
40.5839	8.000000
40.6244	8.000000
40.6649	7.000000
40.7054	5.000000
40.7459	6.000000
40.7865	6.000000
40.827	10
40.8675	11
40.908	11
40.9485	5.000000
40.989	9.000000
41.0296	7.000000
41.0701	13
41.1106	10
41.1511	13
41.1916	11
41.2322	10
41.2727	11
41.3132	8.000000
41.3537	7.000000
41.3942	10
41.4348	11
41.4753	5.000000
41.5158	8.000000
41.5563	5.000000
41.5968	6.000000
41.6374	13
41.6779	11
41.7184	7.000000
41.7589	8.000000
41.7994	6.000000
41.84	8.000000
41.8805	10
41.921	5.000000
41.9615	6.000000
42.002	10
42.0426	13
42.0831	6.000000
42.1236	8.000000
42.1641	6.000000
42.2046	5.000000
42.2452	10
42.2857	8.000000
42.3262	2.000000
42.3667	3.000000
42.4072	10
42.4477	10
42.4883	3.000000
42.5288	6.000000
42.5693	8.000000
42.6098	11
42.6503	7.000000
42.6909	6.000000
42.7314	7.000000
42.7719	8.000000
42.8124	5.000000
42.8529	6.000000
42.8935	9.000000
42.934	9.000000
42.9745	10
43.015	8.000000
43.0555	6.000000
43.0961	6.000000
43.1366	6.000000
43.1771	2.000000
43.2176	12
43.2581	7.000000
43.2987	10
43.3392	10
43.3797	9.000000
43.4202	9.000000
43.4607	16
43.5013	16
43.5418	9.000000
43.5823	13
43.6228	16
43.6633	15
43.7039	16
43.7444	10
43.7849	15
43.8254	17
43.8659	14
43.9064	16
43.947	17
43.9875	23
44.028	21
44.0685	27
44.109	24
44.1496	20
44.1901	28
44.2306	25
44.2711	22
44.3116	30
44.3522	28
44.3927	37
44.4332	39
44.4737	42
44.5142	33
44.5548	37
44.5953	31
44.6358	29
44.6763	46
44.7168	42
44.7574	44
44.7979	35
44.8384	50
44.8789	42
44.9194	43
44.96	40
45.0005	39
45.041	47
45.0815	34
45.122	47
45.1625	37
45.2031	44
45.2436	44
45.2841	35
45.3246	39
45.3651	31
45.4057	31
45.4462	24
45.4867	23
45.5272	21
45.5677	34
45.6083	18
45.6488	15
45.6893	16
45.7298	18
45.7703	13
45.8109	14
45.8514	7.000000
45.8919	8.000000
45.9324	6.000000
45.9729	9.000000
46.0135	15
46.054	16
46.0945	10
46.135	12
46.1755	14
46.2161	11
46.2566	12
46.2971	7.000000
46.3376	10
46.3781	15
46.4186	7.000000
46.4592	6.000000
46.4997	10
46.5402	7.000000
46.5807	6.000000
46.6212	11
46.6618	5.000000
46.7023	4.000000
46.7428	3.000000
46.7833	8.000000
46.8238	6.000000
46.8644	10
46.9049	13
46.9454	5.000000
46.9859	10
47.0264	7.000000
47.067	6.000000
47.1075	9.000000
47.148	6.000000
47.1885	7.000000
47.229	6.000000
47.2696	6.000000
47.3101	13
47.3506	5.000000
47.3911	8.000000
47.4316	9.000000
47.4722	7.000000
47.5127	4.000000
47.5532	2.000000
47.5937	6.000000
47.6342	7.000000
47.6748	8.000000
47.7153	2.000000
47.7558	8.000000
47.7963	5.000000
47.8368	8.000000
47.8773	7.000000
47.9179	8.000000
47.9584	13
47.9989	6.000000
48.0394	5.000000
48.0799	6.000000
48.1205	6.000000
48.161	5.000000
48.2015	5.000000
48.242	7.000000
48.2825	12
48.3231	6.000000
48.3636	6.000000
48.4041	5.000000
48.4446	6.000000
48.4851	12
48.5257	7.000000
48.5662	10
48.6067	3.000000
48.6472	5.000000
48.6877	7.000000
48.7283	4.000000
48.7688	7.000000
48.8093	2.000000
48.8498	8.000000
48.8903	6.000000
48.9309	7.000000
48.9714	3.000000
49.0119	10
49.0524	4.000000
49.0929	1.000000
49.1335	14
49.174	7.000000
49.2145	6.000000
49.255	5.000000
49.2955	10
49.336	5.000000
49.3766	2.000000
49.4171	4.000000
49.4576	4.000000
49.4981	8.000000
49.5386	10
49.5792	2.000000
49.6197	4.000000
49.6602	6.000000
49.7007	6.000000
49.7412	5.000000
49.7818	4.000000
49.8223	7.000000
49.8628	3.000000
49.9033	9.000000
49.9438	1.000000
49.9844	7.000000
50.0249	8.000000
50.0654	5.000000
50.1059	10
50.1464	7.000000
50.187	6.000000
50.2275	7.000000
50.268	9.000000
50.3085	6.000000
50.349	6.000000
50.3896	10
50.4301	9.000000
50.4706	4.000000
50.5111	15
50.5516	8.000000
50.5921	12
50.6327	9.000000
50.6732	13
50.7137	12
50.7542	22
50.7947	7.000000
50.8353	9.000000
50.8758	8.000000
50.9163	7.000000
50.9568	12
50.9973	17
51.0379	12
51.0784	9.000000
51.1189	13
51.1594	10
51.1999	4.000000
51.2405	7.000000
51.281	6.000000
51.3215	8.000000
51.362	10
51.4025	9.000000
51.4431	7.000000
51.4836	4.000000
51.5241	12
51.5646	6.000000
51.6051	6.000000
51.6457	2.000000
51.6862	7.000000
51.7267	5.000000
51.7672	7.000000
51.8077	6.000000
51.8483	4.000000
51.8888	6.000000
51.9293	10
51.9698	6.000000
52.0103	3.000000
52.0508	7.000000
52.0914	9.000000
52.1319	6.000000
52.1724	10
52.2129	6.000000
52.2534	9.000000
52.294	4.000000
52.3345	4.000000
52.375	6.000000
52.4155	3.000000
52.456	4.000000
52.4966	4.000000
52.5371	7.000000
52.5776	10
52.6181	4.000000
52.6586	6.000000
52.6992	0.000000
52.7397	10
52.7802	7.000000
52.8207	3.000000
52.8612	5.000000
52.9018	7.000000
52.9423	4.000000
52.9828	6.000000
53.0233	11
53.0638	3.000000
53.1044	7.000000
53.1449	6.000000
53.1854	6.000000
53.2259	3.000000
53.2664	7.000000
53.3069	4.000000
53.3475	12
53.388	5.000000
53.4285	8.000000
53.469	7.000000
53.5095	7.000000
53.5501	4.000000
53.5906	9.000000
53.6311	6.000000
53.6716	6.000000
53.7121	6.000000
53.7527	7.000000
53.7932	8.000000
53.8337	2.000000
53.8742	8.000000
53.9147	4.000000
53.9553	4.000000
53.9958	7.000000
54.0363	7.000000
54.0768	11
54.1173	2.000000
54.1579	4.000000
54.1984	7.000000
54.2389	5.000000
54.2794	8.000000
54.3199	6.000000
54.3605	4.000000
54.401	2.000000
54.4415	7.000000
54.482	3.000000
54.5225	14
54.563	7.000000
54.6036	12
54.6441	10
54.6846	14
54.7251	2.000000
54.7656	9.000000
54.8062	5.000000
54.8467	7.000000
54.8872	4.000000
54.9277	6.000000
54.9682	6.000000
55.0088	9.000000
55.0493	7.000000
55.0898	3.000000
55.1303	5.000000
55.1708	5.000000
55.2114	14
55.2519	6.000000
55.2924	10
55.3329	9.000000
55.3734	6.000000
55.414	9.000000
55.4545	15
55.495	12
55.5355	12
55.576	12
55.6166	20
55.6571	11
55.6976	9.000000
55.7381	11
55.7786	20
55.8192	14
55.8597	18
55.9002	31
55.9407	23
55.9812	31
56.0217	21
56.0623	26
56.1028	24
56.1433	29
56.1838	24
56.2243	27
56.2649	20
56.3054	20
56.3459	30
56.3864	28
56.4269	25
56.4675	26
56.508	10
56.5485	19
56.589	12
56.6295	8.000000
56.6701	11
56.7106	13
56.7511	8.000000
56.7916	7.000000
56.8321	9.000000
56.8727	12
56.9132	8.000000
56.9537	10
56.9942	8.000000
57.0347	8.000000
57.0753	4.000000
57.1158	8.000000
57.1563	8.000000
57.1968	9.000000
57.2373	13
57.2779	9.000000
57.3184	5.000000
57.3589	14
57.3994	9.000000
57.4399	4.000000
57.4804	3.000000
57.521	4.000000
57.5615	9.000000
57.602	8.000000
57.6425	7.000000
57.683	10
57.7236	8.000000
57.7641	9.000000
57.8046	12
57.8451	6.000000
57.8856	12
57.9262	5.000000
57.9667	10
58.0072	7.000000
58.0477	4.000000
58.0882	4.000000
58.1288	5.000000
58.1693	10
58.2098	6.000000
58.2503	11
58.2908	8.000000
58.3314	3.000000
58.3719	6.000000
58.4124	7.000000
58.4529	9.000000
58.4934	3.000000
58.534	10
58.5745	7.000000
58.615	10
58.6555	2.000000
58.696	6.000000
58.7365	0.000000
58.7771	7.000000
58.8176	8.000000
58.8581	4.000000
58.8986	5.000000
58.9391	5.000000
58.9797	1.000000
59.0202	14
59.0607	5.000000
59.1012	6.000000
59.1417	7.000000
59.1823	4.000000
59.2228	9.000000
59.2633	5.000000
59.3038	7.000000
59.3443	7.000000
59.3849	7.000000
59.4254	7.000000
59.4659	4.000000
59.5064	9.000000
59.5469	9.000000
59.5875	8.000000
59.628	7.000000
59.6685	7.000000
59.709	5.000000
59.7495	6.000000
59.7901	7.000000
59.8306	1.000000
59.8711	4.000000
59.9116	5.000000
59.9521	8.000000
59.9926	7.000000
60.0332	5.000000
60.0737	4.000000
60.1142	5.000000
60.1547	7.000000
60.1952	6.000000
60.2358	8.000000
60.2763	9.000000
60.3168	8.000000
60.3573	5.000000
60.3978	4.000000
60.4384	8.000000
60.4789	8.000000
60.5194	9.000000
60.5599	8.000000
60.6004	3.000000
60.641	9.000000
60.6815	9.000000
60.722	10
60.7625	6.000000
60.803	6.000000
60.8436	5.000000
60.8841	10
60.9246	11
60.9651	6.000000
61.0056	11
61.0462	6.000000
61.0867	8.000000
61.1272	7.000000
61.1677	2.000000
61.2082	13
61.2488	5.000000
61.2893	8.000000
61.3298	7.000000
61.3703	6.000000
61.4108	6.000000
61.4513	4.000000
61.4919	7.000000
61.5324	8.000000
61.5729	15
61.6134	16
61.6539	25
61.6945	34
61.735	28
61.7755	25
61.816	12
61.8565	9.000000
61.8971	5.000000
61.9376	15
61.9781	8.000000
62.0186	6.000000
62.0591	5.000000
62.0997	11
62.1402	10
62.1807	8.000000
62.2212	7.000000
62.2617	4.000000
62.3023	10
62.3428	10
62.3833	7.000000
62.4238	10
62.4643	8.000000
62.5049	7.000000
62.5454	6.000000
62.5859	2.000000
62.6264	9.000000
62.6669	4.000000
62.7075	5.000000
62.748	7.000000
62.7885	6.000000
62.829	10
62.8695	10
62.91	5.000000
62.9506	13
62.9911	11
63.0316	3.000000
63.0721	9.000000
63.1126	3.000000
63.1532	7.000000
63.1937	9.000000
63.2342	10
63.2747	13
63.3152	8.000000
63.3558	6.000000
63.3963	10
63.4368	10
63.4773	5.000000
63.5178	6.000000
63.5584	9.000000
63.5989	6.000000
63.6394	9.000000
63.6799	9.000000
63.7204	6.000000
63.761	9.000000
63.8015	6.000000
63.842	15
63.8825	8.000000
63.923	11
63.9636	11
64.0041	14
64.0446	8.000000
64.0851	7.000000
64.1256	11
64.1661	11
64.2067	6.000000
64.2472	10
64.2877	8.000000
64.3282	20
64.3687	8.000000
64.4093	19
64.4498	15
64.4903	15
64.5308	7.000000
64.5713	17
64.6119	12
64.6524	16
64.6929	6.000000
64.7334	15
64.7739	13
64.8145	11
64.855	13
64.8955	9.000000
64.936	14
64.9765	13
65.0171	17
65.0576	12
65.0981	22
65.1386	22
65.1791	13
65.2197	16
65.2602	14
65.3007	14
65.3412	18
65.3817	17
65.4223	19
65.4628	27
65.5033	23
65.5438	20
65.5843	32
65.6248	22
65.6654	31
65.7059	35
65.7464	39
65.7869	73
65.8274	89
65.868	76
65.9085	79
65.949	79
65.9895	54
66.03	42
66.0706	36
66.1111	36
66.1516	33
66.1921	29
66.2326	37
66.2732	40
66.3137	113
66.3542	290
66.3947	696
66.4352	952
66.4758	1072
66.5163	1175
66.5568	1200
66.5973	924
66.6378	830
66.6784	746
66.7189	749
66.7594	717
66.7999	754
66.8404	716
66.8809	774
66.9215	751
66.962	792
67.0025	763
67.043	761
67.0835	749
67.1241	773
67.1646	796
67.2051	873
67.2456	863
67.2861	778
67.3267	829
67.3672	930
67.4077	848
67.4482	882
67.4887	848
67.5293	927
67.5698	923
67.6103	921
67.6508	948
67.6913	880
67.7319	974
67.7724	951
67.8129	1019
67.8534	958
67.8939	1049
67.9345	1032
67.975	1053
68.0155	1121
68.056	1061
68.0965	1139
68.1371	1168
68.1776	1131
68.2181	1183
68.2586	1244
68.2991	1243
68.3396	1396
68.3802	1381
68.4207	1500
68.4612	1553
68.5017	1656
68.5422	1712
68.5828	1944
68.6233	2222
68.6638	2875
68.7043	3894
68.7448	4939
68.7854	5604
68.8259	6063
68.8664	6606
68.9069	8018
68.9474	12575
68.988	25381
69.0285	100994
69.069	230336
69.1095	262116
69.15	255993
69.1906	178031
69.2311	102166
69.2716	126437
69.3121	132401
69.3526	122938
69.3932	69046
69.4337	19376
69.4742	8069
69.5147	5164
69.5552	3876
69.5957	3006
69.6363	2625
69.6768	2093
69.7173	1888
69.7578	1578
69.7983	1529
69.8389	1311
69.8794	1164
69.9199	1139
69.9604	1018
70.0009	955
70.0415	878
70.082	825
70.1225	811
70.163	729
70.2035	692
70.2441	658
70.2846	620
70.3251	586
70.3656	569
70.4061	532
70.4467	490
70.4872	477
70.5277	462
70.5682	434
70.6087	411
70.6493	406
70.6898	392
70.7303	363
70.7708	344
70.8113	342
70.8518	334
70.8924	316
70.9329	290
70.9734	278
71.0139	245
71.0544	228
71.095	225
71.1355	260
71.176	233
71.2165	195
71.257	203
71.2976	172
71.3381	175
71.3786	186
71.4191	184
71.4596	168
71.5002	145
71.5407	166
71.5812	141
71.6217	121
71.6622	126
71.7028	126
71.7433	124
71.7838	124
71.8243	111
71.8648	115
71.9054	112
71.9459	103
71.9864	116
72.0269	101
72.0674	94
72.108	80
72.1485	95
72.189	83
72.2295	90
72.27	90
72.3105	89
72.3511	65
72.3916	74
72.4321	83
72.4726	84
72.5131	86
72.5537	81
72.5942	66
72.6347	74
72.6752	66
72.7157	66
72.7563	72
72.7968	65
72.8373	60
72.8778	68
72.9183	61
72.9589	55
72.9994	63
73.0399	70
73.0804	46
73.1209	67
73.1615	50
73.202	54
73.2425	50
73.283	53
73.3235	50
73.3641	38
73.4046	51
73.4451	35
73.4856	44
73.5261	52
73.5666	42
73.6072	41
73.6477	51
73.6882	50
73.7287	48
73.7692	46
73.8098	36
73.8503	37
73.8908	46
73.9313	39
73.9718	58
74.0124	37
74.0529	34
74.0934	50
74.1339	30
74.1744	47
74.215	35
74.2555	36
74.296	33
74.3365	29
74.377	34
74.4176	39
74.4581	48
74.4986	35
74.5391	30
74.5796	36
74.6202	36
74.6607	39
74.7012	38
74.7417	32
74.7822	29
74.8228	30
74.8633	44
74.9038	30
74.9443	29
74.9848	38
75.0253	27
75.0659	28
75.1064	33
75.1469	27
75.1874	21
75.2279	27
75.2685	28
75.309	32
75.3495	27
75.39	35
75.4305	32
75.4711	25
75.5116	24
75.5521	26
75.5926	34
75.6331	22
75.6737	30
75.7142	23
75.7547	33
75.7952	26
75.8357	27
75.8763	38
75.9168	26
75.9573	28
75.9978	27
76.0383	29
76.0789	26
76.1194	23
76.1599	43
76.2004	34
76.2409	51
76.2815	39
76.322	49
76.3625	41
76.403	34
76.4435	30
76.484	38
76.5246	36
76.5651	25
76.6056	17
76.6461	27
76.6866	20
76.7272	28
76.7677	18
76.8082	19
76.8487	18
76.8892	12
76.9298	11
76.9703	23
77.0108	17
77.0513	11
77.0918	22
77.1324	17
77.1729	11
77.2134	12
77.2539	7.000000
77.2944	13
77.335	14
77.3755	14
77.416	19
77.4565	14
77.497	13
77.5376	17
77.5781	15
77.6186	15
77.6591	16
77.6996	15
77.7401	10
77.7807	12
77.8212	21
77.8617	13
77.9022	6.000000
77.9427	19
77.9833	13
78.0238	14
78.0643	5.000000
78.1048	16
78.1453	3.000000
78.1859	11
78.2264	15
78.2669	10
78.3074	11
78.3479	12
78.3885	10
78.429	15
78.4695	13
78.51	13
78.5505	18
78.5911	13
78.6316	11
78.6721	13
78.7126	12
78.7531	15
78.7937	13
78.8342	14
78.8747	13
78.9152	7.000000
78.9557	13
78.9963	8.000000
79.0368	17
79.0773	14
79.1178	18
79.1583	12
79.1988	18
79.2394	12
79.2799	14
79.3204	10
79.3609	15
79.4014	13
79.442	14
79.4825	10
79.523	6.000000
79.5635	11
79.604	17
79.6446	11
79.6851	10
79.7256	11
79.7661	10
79.8066	9.000000
79.8472	5.000000
79.8877	11
79.9282	14
79.9687	9.000000
80.0092	6.000000
80.0295	7.000000