File: ThemeT/BTO_XRD/3,4班XRD/201209_4班XRD.csv
;content of C:\Users\Bruker\AppData\Local\Temp\92fetmp-49747219.raw - (Diffrac Plus V4 file)
_FILEVERSION = 3
_SAMPLE = Commander Sample ID
_+SAMPLE
_USER = Lab Manager
_GONIOMETER_CODE = 21
_STAGE_CODE = 4
; Goniometer : D8 theta/theta, stage : Open eulerian craddle
_SAMPLE_CHANGER_CODE = 0
_ATTACHMENTS_CODE = 0
_GONIOMETER_RADIUS = 415
_MONOCHROMATOR = 0
; Incident beam monochromator : None
_BETA_FILTER = N
_ANALYZER_CODE = 0
; Received beam analyzer : None
_DATEMEASURED = 09-Dec-2020 14:53:21
_RUNTIME = 12.37992
_WL_UNIT = A
_WL1 = 1.5406
_WL2 = 1.54439
_WL3 = 1.39222
_WLRATIO = 0.5
_ANODE = Cu
_V4_INF_USER = Lab Manager
_V4_INF_SAMPLEID = Commander Sample ID
_V4_INF_CREATOR = V5Converter
_V4_INF_CREATOR_VERSION = 3.3.47.0
_V4_INF_SUBSTRATE = Si (no database)
_V4_INF_LAYER = Si (no database)

; Data for range 1
_DRIVE = COUPLED
_STEPTIME = 76.8
_STEPSIZE = 0.02026
_STEPMODE = C
_START = 20
_THETA = 10
_2THETA = 20
_KHI = -0.45
_PHI = 0
_X = -13.384
_Y = 0
_Z = 0.674
_DETECTORSLIT = out
_AUX2 = 0
_TIMESTARTED = 0
_KV = 40
_MA = 40
_RANGE_WL = 1.5406
_3DPLANE = 0
_V4_PSD2THETA = 9999
_V4_PSDCHANNEL1 = 0
_V4_PSDAPERTURE = 2.083855
_V4_PSDTYPE = 5
_V4_PSDFIXED = 0
_V4_COUNTERS_MASK = 1
_V4_DRIVES_MASK = 0
_V4_ENCODERS_MASK = 0
_2THETACOUNTS = 1
; 2THETA	Cnt2_D1
20	21
20.0405	35
20.081	21
20.1216	22
20.1621	23
20.2026	21
20.2431	31
20.2836	21
20.3242	23
20.3647	20
20.4052	18
20.4457	23
20.4862	18
20.5268	24
20.5673	21
20.6078	15
20.6483	21
20.6888	25
20.7293	24
20.7699	12
20.8104	21
20.8509	18
20.8914	22
20.9319	23
20.9725	22
21.013	20
21.0535	30
21.094	17
21.1345	28
21.1751	18
21.2156	19
21.2561	21
21.2966	27
21.3371	24
21.3777	27
21.4182	19
21.4587	13
21.4992	26
21.5397	21
21.5803	19
21.6208	28
21.6613	23
21.7018	39
21.7423	19
21.7829	33
21.8234	27
21.8639	26
21.9044	38
21.9449	34
21.9855	43
22.026	35
22.0665	59
22.107	48
22.1475	61
22.188	55
22.2286	48
22.2691	42
22.3096	46
22.3501	28
22.3906	37
22.4312	32
22.4717	38
22.5122	40
22.5527	34
22.5932	36
22.6338	23
22.6743	30
22.7148	28
22.7553	24
22.7958	28
22.8364	20
22.8769	22
22.9174	21
22.9579	23
22.9984	20
23.039	22
23.0795	25
23.12	22
23.1605	22
23.201	15
23.2416	19
23.2821	16
23.3226	22
23.3631	11
23.4036	23
23.4441	18
23.4847	19
23.5252	24
23.5657	11
23.6062	18
23.6467	21
23.6873	22
23.7278	22
23.7683	18
23.8088	12
23.8493	15
23.8899	16
23.9304	16
23.9709	16
24.0114	18
24.0519	21
24.0925	17
24.133	18
24.1735	12
24.214	20
24.2545	11
24.2951	13
24.3356	17
24.3761	15
24.4166	16
24.4571	18
24.4977	13
24.5382	9.000000
24.5787	15
24.6192	20
24.6597	17
24.7003	12
24.7408	17
24.7813	17
24.8218	11
24.8623	11
24.9028	8.000000
24.9434	12
24.9839	18
25.0244	15
25.0649	12
25.1054	13
25.146	19
25.1865	16
25.227	17
25.2675	13
25.308	14
25.3486	14
25.3891	18
25.4296	13
25.4701	14
25.5106	18
25.5512	12
25.5917	15
25.6322	13
25.6727	21
25.7132	6.000000
25.7538	14
25.7943	23
25.8348	18
25.8753	18
25.9158	17
25.9564	11
25.9969	13
26.0374	22
26.0779	15
26.1184	17
26.1589	32
26.1995	16
26.24	11
26.2805	19
26.321	22
26.3615	21
26.4021	19
26.4426	12
26.4831	13
26.5236	24
26.5641	9.000000
26.6047	10
26.6452	10
26.6857	13
26.7262	16
26.7667	18
26.8073	14
26.8478	17
26.8883	11
26.9288	16
26.9693	17
27.0099	14
27.0504	12
27.0909	15
27.1314	14
27.1719	13
27.2125	17
27.253	10
27.2935	18
27.334	13
27.3745	19
27.4151	19
27.4556	15
27.4961	16
27.5366	7.000000
27.5771	21
27.6176	16
27.6582	12
27.6987	12
27.7392	11
27.7797	17
27.8202	13
27.8608	13
27.9013	11
27.9418	12
27.9823	12
28.0228	14
28.0634	14
28.1039	15
28.1444	19
28.1849	8.000000
28.2254	16
28.266	14
28.3065	12
28.347	14
28.3875	12
28.428	22
28.4686	13
28.5091	11
28.5496	20
28.5901	12
28.6306	16
28.6712	14
28.7117	15
28.7522	12
28.7927	16
28.8332	15
28.8737	15
28.9143	17
28.9548	15
28.9953	22
29.0358	9.000000
29.0763	19
29.1169	19
29.1574	14
29.1979	17
29.2384	11
29.2789	17
29.3195	12
29.36	12
29.4005	13
29.441	14
29.4815	13
29.5221	14
29.5626	18
29.6031	13
29.6436	18
29.6841	11
29.7247	9.000000
29.7652	19
29.8057	23
29.8462	13
29.8867	12
29.9273	17
29.9678	21
30.0083	12
30.0488	12
30.0893	16
30.1299	14
30.1704	18
30.2109	25
30.2514	15
30.2919	9.000000
30.3324	18
30.373	24
30.4135	13
30.454	19
30.4945	15
30.535	19
30.5756	14
30.6161	20
30.6566	22
30.6971	26
30.7376	16
30.7782	24
30.8187	24
30.8592	23
30.8997	31
30.9402	30
30.9808	25
31.0213	30
31.0618	41
31.1023	47
31.1428	49
31.1834	57
31.2239	75
31.2644	78
31.3049	83
31.3454	101
31.386	110
31.4265	144
31.467	150
31.5075	182
31.548	173
31.5885	155
31.6291	130
31.6696	118
31.7101	97
31.7506	100
31.7911	61
31.8317	63
31.8722	56
31.9127	44
31.9532	41
31.9937	38
32.0343	25
32.0748	37
32.1153	36
32.1558	49
32.1963	31
32.2369	27
32.2774	30
32.3179	35
32.3584	23
32.3989	34
32.4395	28
32.48	19
32.5205	25
32.561	24
32.6015	26
32.6421	27
32.6826	31
32.7231	22
32.7636	33
32.8041	44
32.8447	92
32.8852	367
32.9257	387
32.9662	492
33.0067	505
33.0472	274
33.0878	168
33.1283	64
33.1688	27
33.2093	23
33.2498	14
33.2904	23
33.3309	8.000000
33.3714	8.000000
33.4119	13
33.4524	12
33.493	11
33.5335	12
33.574	14
33.6145	24
33.655	16
33.6956	21
33.7361	18
33.7766	19
33.8171	22
33.8576	24
33.8982	31
33.9387	42
33.9792	32
34.0197	40
34.0602	46
34.1008	40
34.1413	42
34.1818	70
34.2223	45
34.2628	56
34.3033	61
34.3439	53
34.3844	38
34.4249	35
34.4654	35
34.5059	28
34.5465	16
34.587	26
34.6275	22
34.668	21
34.7085	16
34.7491	13
34.7896	14
34.8301	13
34.8706	23
34.9111	12
34.9517	8.000000
34.9922	13
35.0327	10
35.0732	4.000000
35.1137	11
35.1543	7.000000
35.1948	12
35.2353	8.000000
35.2758	12
35.3163	10
35.3569	15
35.3974	9.000000
35.4379	8.000000
35.4784	9.000000
35.5189	11
35.5595	6.000000
35.6	11
35.6405	7.000000
35.681	10
35.7215	8.000000
35.762	4.000000
35.8026	5.000000
35.8431	7.000000
35.8836	4.000000
35.9241	9.000000
35.9646	7.000000
36.0052	9.000000
36.0457	4.000000
36.0862	12
36.1267	9.000000
36.1672	11
36.2078	5.000000
36.2483	13
36.2888	6.000000
36.3293	6.000000
36.3698	13
36.4104	4.000000
36.4509	7.000000
36.4914	13
36.5319	10
36.5724	8.000000
36.613	13
36.6535	10
36.694	8.000000
36.7345	7.000000
36.775	15
36.8156	12
36.8561	8.000000
36.8966	10
36.9371	11
36.9776	11
37.0181	12
37.0587	9.000000
37.0992	7.000000
37.1397	7.000000
37.1802	3.000000
37.2207	9.000000
37.2613	16
37.3018	8.000000
37.3423	6.000000
37.3828	12
37.4233	11
37.4639	5.000000
37.5044	5.000000
37.5449	8.000000
37.5854	9.000000
37.6259	13
37.6665	7.000000
37.707	13
37.7475	12
37.788	10
37.8285	10
37.8691	9.000000
37.9096	10
37.9501	10
37.9906	12
38.0311	8.000000
38.0717	9.000000
38.1122	12
38.1527	10
38.1932	18
38.2337	8.000000
38.2743	16
38.3148	18
38.3553	17
38.3958	23
38.4363	22
38.4768	29
38.5174	26
38.5579	28
38.5984	38
38.6389	31
38.6794	32
38.72	42
38.7605	40
38.801	62
38.8415	51
38.882	62
38.9226	54
38.9631	48
39.0036	43
39.0441	57
39.0846	53
39.1252	31
39.1657	42
39.2062	36
39.2467	27
39.2872	36
39.3278	32
39.3683	30
39.4088	48
39.4493	35
39.4898	41
39.5304	75
39.5709	75
39.6114	110
39.6519	126
39.6924	224
39.7329	443
39.7735	737
39.814	1291
39.8545	1686
39.895	1739
39.9355	1585
39.9761	1164
40.0166	790
40.0571	481
40.0976	245
40.1381	156
40.1787	97
40.2192	71
40.2597	68
40.3002	42
40.3407	42
40.3813	26
40.4218	32
40.4623	29
40.5028	29
40.5433	19
40.5839	24
40.6244	18
40.6649	16
40.7054	29
40.7459	11
40.7865	17
40.827	25
40.8675	9.000000
40.908	8.000000
40.9485	10
40.989	9.000000
41.0296	19
41.0701	16
41.1106	10
41.1511	1.000000
41.1916	13
41.2322	11
41.2727	13
41.3132	10
41.3537	10
41.3942	9.000000
41.4348	8.000000
41.4753	9.000000
41.5158	10
41.5563	11
41.5968	12
41.6374	8.000000
41.6779	5.000000
41.7184	15
41.7589	9.000000
41.7994	11
41.84	5.000000
41.8805	9.000000
41.921	10
41.9615	12
42.002	9.000000
42.0426	9.000000
42.0831	11
42.1236	6.000000
42.1641	10
42.2046	4.000000
42.2452	10
42.2857	5.000000
42.3262	8.000000
42.3667	8.000000
42.4072	4.000000
42.4477	5.000000
42.4883	14
42.5288	5.000000
42.5693	6.000000
42.6098	11
42.6503	2.000000
42.6909	6.000000
42.7314	9.000000
42.7719	7.000000
42.8124	12
42.8529	10
42.8935	7.000000
42.934	7.000000
42.9745	4.000000
43.015	10
43.0555	3.000000
43.0961	6.000000
43.1366	4.000000
43.1771	8.000000
43.2176	9.000000
43.2581	9.000000
43.2987	8.000000
43.3392	7.000000
43.3797	7.000000
43.4202	6.000000
43.4607	5.000000
43.5013	6.000000
43.5418	6.000000
43.5823	11
43.6228	8.000000
43.6633	7.000000
43.7039	7.000000
43.7444	13
43.7849	10
43.8254	7.000000
43.8659	7.000000
43.9064	10
43.947	7.000000
43.9875	8.000000
44.028	4.000000
44.0685	5.000000
44.109	11
44.1496	7.000000
44.1901	8.000000
44.2306	9.000000
44.2711	6.000000
44.3116	12
44.3522	5.000000
44.3927	15
44.4332	9.000000
44.4737	8.000000
44.5142	13
44.5548	16
44.5953	7.000000
44.6358	13
44.6763	12
44.7168	14
44.7574	16
44.7979	14
44.8384	17
44.8789	19
44.9194	18
44.96	21
45.0005	19
45.041	32
45.0815	22
45.122	29
45.1625	48
45.2031	29
45.2436	34
45.2841	29
45.3246	19
45.3651	33
45.4057	32
45.4462	27
45.4867	24
45.5272	24
45.5677	22
45.6083	19
45.6488	21
45.6893	18
45.7298	17
45.7703	17
45.8109	19
45.8514	14
45.8919	17
45.9324	15
45.9729	13
46.0135	14
46.054	18
46.0945	18
46.135	35
46.1755	38
46.2161	47
46.2566	65
46.2971	108
46.3376	171
46.3781	239
46.4186	302
46.4592	295
46.4997	291
46.5402	209
46.5807	196
46.6212	120
46.6618	89
46.7023	47
46.7428	35
46.7833	22
46.8238	12
46.8644	18
46.9049	13
46.9454	11
46.9859	18
47.0264	7.000000
47.067	13
47.1075	6.000000
47.148	4.000000
47.1885	3.000000
47.229	8.000000
47.2696	10
47.3101	11
47.3506	9.000000
47.3911	6.000000
47.4316	9.000000
47.4722	11
47.5127	10
47.5532	5.000000
47.5937	6.000000
47.6342	6.000000
47.6748	6.000000
47.7153	9.000000
47.7558	6.000000
47.7963	8.000000
47.8368	7.000000
47.8773	13
47.9179	7.000000
47.9584	7.000000
47.9989	4.000000
48.0394	8.000000
48.0799	3.000000
48.1205	7.000000
48.161	5.000000
48.2015	3.000000
48.242	10
48.2825	5.000000
48.3231	3.000000
48.3636	4.000000
48.4041	3.000000
48.4446	5.000000
48.4851	7.000000
48.5257	10
48.5662	6.000000
48.6067	3.000000
48.6472	9.000000
48.6877	9.000000
48.7283	13
48.7688	9.000000
48.8093	12
48.8498	4.000000
48.8903	3.000000
48.9309	7.000000
48.9714	10
49.0119	7.000000
49.0524	4.000000
49.0929	11
49.1335	8.000000
49.174	6.000000
49.2145	2.000000
49.255	6.000000
49.2955	8.000000
49.336	9.000000
49.3766	8.000000
49.4171	12
49.4576	5.000000
49.4981	5.000000
49.5386	5.000000
49.5792	7.000000
49.6197	3.000000
49.6602	7.000000
49.7007	8.000000
49.7412	5.000000
49.7818	4.000000
49.8223	9.000000
49.8628	4.000000
49.9033	8.000000
49.9438	9.000000
49.9844	4.000000
50.0249	9.000000
50.0654	9.000000
50.1059	7.000000
50.1464	8.000000
50.187	11
50.2275	7.000000
50.268	3.000000
50.3085	9.000000
50.349	2.000000
50.3896	5.000000
50.4301	7.000000
50.4706	1.000000
50.5111	5.000000
50.5516	10
50.5921	10
50.6327	10
50.6732	9.000000
50.7137	11
50.7542	11
50.7947	16
50.8353	10
50.8758	13
50.9163	12
50.9568	11
50.9973	11
51.0379	15
51.0784	9.000000
51.1189	20
51.1594	6.000000
51.1999	8.000000
51.2405	8.000000
51.281	13
51.3215	8.000000
51.362	7.000000
51.4025	4.000000
51.4431	7.000000
51.4836	11
51.5241	1.000000
51.5646	4.000000
51.6051	3.000000
51.6457	5.000000
51.6862	1.000000
51.7267	6.000000
51.7672	5.000000
51.8077	5.000000
51.8483	10
51.8888	5.000000
51.9293	5.000000
51.9698	5.000000
52.0103	9.000000
52.0508	6.000000
52.0914	5.000000
52.1319	2.000000
52.1724	4.000000
52.2129	5.000000
52.2534	5.000000
52.294	10
52.3345	4.000000
52.375	9.000000
52.4155	5.000000
52.456	5.000000
52.4966	9.000000
52.5371	5.000000
52.5776	4.000000
52.6181	5.000000
52.6586	9.000000
52.6992	3.000000
52.7397	6.000000
52.7802	10
52.8207	8.000000
52.8612	7.000000
52.9018	8.000000
52.9423	8.000000
52.9828	5.000000
53.0233	2.000000
53.0638	5.000000
53.1044	5.000000
53.1449	5.000000
53.1854	8.000000
53.2259	10
53.2664	6.000000
53.3069	4.000000
53.3475	3.000000
53.388	5.000000
53.4285	5.000000
53.469	5.000000
53.5095	4.000000
53.5501	8.000000
53.5906	6.000000
53.6311	6.000000
53.6716	5.000000
53.7121	4.000000
53.7527	3.000000
53.7932	6.000000
53.8337	8.000000
53.8742	8.000000
53.9147	5.000000
53.9553	6.000000
53.9958	7.000000
54.0363	4.000000
54.0768	2.000000
54.1173	7.000000
54.1579	9.000000
54.1984	3.000000
54.2389	5.000000
54.2794	4.000000
54.3199	5.000000
54.3605	5.000000
54.401	4.000000
54.4415	11
54.482	8.000000
54.5225	7.000000
54.563	8.000000
54.6036	12
54.6441	7.000000
54.6846	6.000000
54.7251	7.000000
54.7656	6.000000
54.8062	6.000000
54.8467	5.000000
54.8872	12
54.9277	5.000000
54.9682	5.000000
55.0088	9.000000
55.0493	5.000000
55.0898	7.000000
55.1303	7.000000
55.1708	4.000000
55.2114	10
55.2519	14
55.2924	4.000000
55.3329	9.000000
55.3734	5.000000
55.414	9.000000
55.4545	10
55.495	13
55.5355	10
55.576	13
55.6166	8.000000
55.6571	15
55.6976	11
55.7381	12
55.7786	13
55.8192	12
55.8597	22
55.9002	16
55.9407	18
55.9812	23
56.0217	24
56.0623	29
56.1028	30
56.1433	29
56.1838	24
56.2243	34
56.2649	26
56.3054	36
56.3459	39
56.3864	26
56.4269	34
56.4675	28
56.508	24
56.5485	18
56.589	8.000000
56.6295	12
56.6701	15
56.7106	9.000000
56.7511	7.000000
56.7916	9.000000
56.8321	9.000000
56.8727	11
56.9132	5.000000
56.9537	9.000000
56.9942	7.000000
57.0347	4.000000
57.0753	10
57.1158	9.000000
57.1563	3.000000
57.1968	3.000000
57.2373	1.000000
57.2779	4.000000
57.3184	9.000000
57.3589	9.000000
57.3994	10
57.4399	8.000000
57.4804	7.000000
57.521	10
57.5615	6.000000
57.602	4.000000
57.6425	6.000000
57.683	5.000000
57.7236	3.000000
57.7641	6.000000
57.8046	4.000000
57.8451	4.000000
57.8856	6.000000
57.9262	4.000000
57.9667	5.000000
58.0072	4.000000
58.0477	5.000000
58.0882	3.000000
58.1288	2.000000
58.1693	8.000000
58.2098	1.000000
58.2503	6.000000
58.2908	4.000000
58.3314	2.000000
58.3719	6.000000
58.4124	8.000000
58.4529	4.000000
58.4934	3.000000
58.534	8.000000
58.5745	10
58.615	5.000000
58.6555	5.000000
58.696	2.000000
58.7365	5.000000
58.7771	5.000000
58.8176	8.000000
58.8581	8.000000
58.8986	2.000000
58.9391	6.000000
58.9797	7.000000
59.0202	5.000000
59.0607	6.000000
59.1012	4.000000
59.1417	4.000000
59.1823	2.000000
59.2228	8.000000
59.2633	5.000000
59.3038	9.000000
59.3443	4.000000
59.3849	4.000000
59.4254	5.000000
59.4659	5.000000
59.5064	4.000000
59.5469	12
59.5875	4.000000
59.628	8.000000
59.6685	4.000000
59.709	3.000000
59.7495	4.000000
59.7901	5.000000
59.8306	4.000000
59.8711	7.000000
59.9116	8.000000
59.9521	3.000000
59.9926	3.000000
60.0332	6.000000
60.0737	3.000000
60.1142	1.000000
60.1547	8.000000
60.1952	6.000000
60.2358	4.000000
60.2763	5.000000
60.3168	5.000000
60.3573	3.000000
60.3978	4.000000
60.4384	4.000000
60.4789	9.000000
60.5194	12
60.5599	7.000000
60.6004	6.000000
60.641	5.000000
60.6815	6.000000
60.722	6.000000
60.7625	6.000000
60.803	8.000000
60.8436	4.000000
60.8841	2.000000
60.9246	3.000000
60.9651	4.000000
61.0056	4.000000
61.0462	3.000000
61.0867	7.000000
61.1272	6.000000
61.1677	6.000000
61.2082	11
61.2488	5.000000
61.2893	3.000000
61.3298	14
61.3703	7.000000
61.4108	13
61.4513	7.000000
61.4919	11
61.5324	10
61.5729	11
61.6134	10
61.6539	22
61.6945	18
61.735	29
61.7755	22
61.816	13
61.8565	4.000000
61.8971	9.000000
61.9376	6.000000
61.9781	11
62.0186	10
62.0591	4.000000
62.0997	9.000000
62.1402	10
62.1807	2.000000
62.2212	8.000000
62.2617	5.000000
62.3023	8.000000
62.3428	7.000000
62.3833	11
62.4238	12
62.4643	5.000000
62.5049	17
62.5454	6.000000
62.5859	8.000000
62.6264	7.000000
62.6669	6.000000
62.7075	6.000000
62.748	7.000000
62.7885	5.000000
62.829	9.000000
62.8695	10
62.91	4.000000
62.9506	7.000000
62.9911	5.000000
63.0316	8.000000
63.0721	5.000000
63.1126	6.000000
63.1532	8.000000
63.1937	2.000000
63.2342	11
63.2747	5.000000
63.3152	9.000000
63.3558	8.000000
63.3963	8.000000
63.4368	9.000000
63.4773	9.000000
63.5178	8.000000
63.5584	5.000000
63.5989	7.000000
63.6394	3.000000
63.6799	8.000000
63.7204	10
63.761	11
63.8015	10
63.842	4.000000
63.8825	7.000000
63.923	7.000000
63.9636	4.000000
64.0041	12
64.0446	13
64.0851	12
64.1256	6.000000
64.1661	11
64.2067	12
64.2472	9.000000
64.2877	14
64.3282	12
64.3687	15
64.4093	6.000000
64.4498	7.000000
64.4903	15
64.5308	8.000000
64.5713	7.000000
64.6119	12
64.6524	9.000000
64.6929	12
64.7334	17
64.7739	18
64.8145	10
64.855	9.000000
64.8955	10
64.936	19
64.9765	13
65.0171	20
65.0576	18
65.0981	19
65.1386	21
65.1791	22
65.2197	24
65.2602	19
65.3007	23
65.3412	14
65.3817	22
65.4223	21
65.4628	21
65.5033	20
65.5438	28
65.5843	17
65.6248	30
65.6654	32
65.7059	25
65.7464	50
65.7869	85
65.8274	105
65.868	90
65.9085	87
65.949	92
65.9895	30
66.03	39
66.0706	21
66.1111	34
66.1516	34
66.1921	27
66.2326	25
66.2732	35
66.3137	93
66.3542	270
66.3947	725
66.4352	949
66.4758	1059
66.5163	1081
66.5568	1069
66.5973	850
66.6378	806
66.6784	700
66.7189	649
66.7594	702
66.7999	649
66.8404	707
66.8809	711
66.9215	744
66.962	685
67.0025	703
67.043	698
67.0835	732
67.1241	750
67.1646	770
67.2051	727
67.2456	755
67.2861	744
67.3267	780
67.3672	803
67.4077	817
67.4482	828
67.4887	859
67.5293	853
67.5698	932
67.6103	995
67.6508	1032
67.6913	1077
67.7319	1071
67.7724	1116
67.8129	982
67.8534	965
67.8939	1000
67.9345	1065
67.975	1013
68.0155	962
68.056	1010
68.0965	1024
68.1371	1013
68.1776	1070
68.2181	1023
68.2586	1110
68.2991	1165
68.3396	1241
68.3802	1167
68.4207	1264
68.4612	1376
68.5017	1459
68.5422	1520
68.5828	1657
68.6233	1924
68.6638	2619
68.7043	3390
68.7448	4245
68.7854	5055
68.8259	5313
68.8664	5750
68.9069	6850
68.9474	10467
68.988	22962
69.0285	99560
69.069	205681
69.1095	230601
69.15	222537
69.1906	143563
69.2311	88535
69.2716	109916
69.3121	115079
69.3526	104913
69.3932	53348
69.4337	15066
69.4742	6683
69.5147	4275
69.5552	3110
69.5957	2425
69.6363	2058
69.6768	1790
69.7173	1482
69.7578	1386
69.7983	1222
69.8389	1103
69.8794	999
69.9199	855
69.9604	863
70.0009	822
70.0415	799
70.082	666
70.1225	669
70.163	641
70.2035	631
70.2441	560
70.2846	544
70.3251	511
70.3656	484
70.4061	435
70.4467	397
70.4872	430
70.5277	373
70.5682	365
70.6087	335
70.6493	331
70.6898	335
70.7303	281
70.7708	282
70.8113	263
70.8518	270
70.8924	230
70.9329	241
70.9734	207
71.0139	202
71.0544	215
71.095	185
71.1355	185
71.176	170
71.2165	181
71.257	161
71.2976	156
71.3381	159
71.3786	154
71.4191	130
71.4596	118
71.5002	126
71.5407	122
71.5812	108
71.6217	106
71.6622	120
71.7028	126
71.7433	122
71.7838	117
71.8243	111
71.8648	96
71.9054	96
71.9459	91
71.9864	82
72.0269	97
72.0674	95
72.108	84
72.1485	86
72.189	65
72.2295	92
72.27	70
72.3105	63
72.3511	78
72.3916	79
72.4321	76
72.4726	56
72.5131	71
72.5537	79
72.5942	61
72.6347	64
72.6752	50
72.7157	53
72.7563	62
72.7968	50
72.8373	47
72.8778	56
72.9183	49
72.9589	50
72.9994	54
73.0399	45
73.0804	37
73.1209	46
73.1615	49
73.202	38
73.2425	54
73.283	49
73.3235	50
73.3641	41
73.4046	43
73.4451	37
73.4856	41
73.5261	41
73.5666	37
73.6072	48
73.6477	35
73.6882	27
73.7287	32
73.7692	39
73.8098	39
73.8503	33
73.8908	46
73.9313	38
73.9718	32
74.0124	39
74.0529	34
74.0934	30
74.1339	31
74.1744	21
74.215	36
74.2555	34
74.296	44
74.3365	33
74.377	27
74.4176	34
74.4581	30
74.4986	36
74.5391	28
74.5796	36
74.6202	41
74.6607	31
74.7012	27
74.7417	26
74.7822	31
74.8228	26
74.8633	27
74.9038	25
74.9443	20
74.9848	34
75.0253	28
75.0659	42
75.1064	29
75.1469	23
75.1874	29
75.2279	22
75.2685	20
75.309	22
75.3495	19
75.39	22
75.4305	22
75.4711	18
75.5116	24
75.5521	16
75.5926	16
75.6331	25
75.6737	25
75.7142	24
75.7547	16
75.7952	22
75.8357	27
75.8763	19
75.9168	24
75.9573	20
75.9978	20
76.0383	18
76.0789	27
76.1194	17
76.1599	25
76.2004	37
76.2409	29
76.2815	36
76.322	48
76.3625	48
76.403	39
76.4435	38
76.484	29
76.5246	25
76.5651	17
76.6056	25
76.6461	13
76.6866	19
76.7272	14
76.7677	20
76.8082	19
76.8487	15
76.8892	19
76.9298	10
76.9703	14
77.0108	9.000000
77.0513	20
77.0918	16
77.1324	18
77.1729	16
77.2134	17
77.2539	19
77.2944	22
77.335	14
77.3755	12
77.416	25
77.4565	11
77.497	8.000000
77.5376	14
77.5781	11
77.6186	12
77.6591	10
77.6996	15
77.7401	20
77.7807	11
77.8212	13
77.8617	12
77.9022	14
77.9427	10
77.9833	7.000000
78.0238	9.000000
78.0643	12
78.1048	12
78.1453	10
78.1859	10
78.2264	12
78.2669	10
78.3074	12
78.3479	11
78.3885	15
78.429	9.000000
78.4695	9.000000
78.51	16
78.5505	6.000000
78.5911	12
78.6316	14
78.6721	14
78.7126	11
78.7531	13
78.7937	9.000000
78.8342	16
78.8747	18
78.9152	14
78.9557	11
78.9963	15
79.0368	12
79.0773	10
79.1178	10
79.1583	10
79.1988	7.000000
79.2394	13
79.2799	11
79.3204	18
79.3609	10
79.4014	15
79.442	13
79.4825	8.000000
79.523	17
79.5635	13
79.604	6.000000
79.6446	9.000000
79.6851	9.000000
79.7256	10
79.7661	8.000000
79.8066	16
79.8472	9.000000
79.8877	7.000000
79.9282	10
79.9687	13
80.0092	11
80.0295	15